"timestamp","linear_acceleration x","linear_acceleration y","linear_acceleration z","gyroscope x","gyroscope y","gyroscope z","acceleration x","acceleration y","acceleration z"
0.0,2.649173141,-1.195497513,-2.016791105,-0.7493238979,1.622996913,-0.9326827526,-8.917343458,7.432893064,-0.6914133562
0.0200130000000627,2.489420056,-1.457073271,-1.806143522,-0.7564506465,1.668676085,-0.9959412681,-9.171402613,7.578677919,-0.98963358
0.0400260000001254,2.413427114,-1.640084326,-1.400867939,-0.7324232856,1.367519511,-0.9934299058,-9.637754228,7.51110612,-1.104026715
0.060034000000087,2.224812746,-1.773095489,-1.170569897,-0.6554542714,1.012267444,-0.9237912893,-10.05888059,7.350955698,-0.9377576444
0.0800480000000334,2.073597074,-1.817888975,-1.127428532,-0.565589216,0.8322658141,-0.8870714837,-10.39753734,7.04714881,-0.8143194715
0.100061000000096,2.243745089,-1.722022414,-1.012651443,-0.4648643136,0.8469944663,-0.9455109305,-10.57045735,6.53291183,-0.7933030658
0.120074000000159,2.264694214,-1.728724599,-0.9537591934,-0.3806327879,0.736835089,-1.038090944,-10.37758509,5.806116475,-0.869387779
0.140088000000105,2.3098104,-1.537994862,-0.9542069435,-0.2990483344,0.4964256816,-1.083159222,-10.12272782,5.319280571,-0.7879824373
0.160104000000047,2.425642252,-1.049377143,-1.095876694,-0.2292060769,0.2113552367,-1.124901679,-9.544377539,4.690650357,-0.640335487
0.180117000000109,2.456062675,-0.9507716298,-0.9237532616,-0.1867848767,-0.03210850215,-1.184359259,-8.965229034,3.919693894,-0.9917618301
0.200131000000056,2.471546412,-0.8216314912,-0.8644533157,-0.1559022417,-0.1048693417,-1.283251564,-8.756129053,3.269515276,-1.395330151
0.220144000000118,2.550448775,-0.8021560907,-0.6034593582,-0.1178928539,-0.03441621552,-1.383161955,-8.898455408,2.559745815,-1.672001905
0.240157000000181,2.567235112,-0.6398928165,-0.578435421,-0.09569808178,0.07139922016,-1.493592832,-9.096116066,1.860617558,-2.154581282
0.260170000000016,2.650933385,-0.2695157528,-0.7322940826,-0.1029605915,0.1605855442,-1.637010402,-9.066320631,1.280670987,-2.50361334
0.280183999999963,2.62488997,0.1455842257,-0.7328271866,-0.1090692431,0.216038535,-1.741604103,-9.137350824,0.7036507659,-2.902925173
0.300198000000137,2.282444239,0.2223550081,-0.5359950066,-0.1042501951,0.3043425,-1.832147903,-8.92106798,0.2843866398,-3.0205107
0.320212000000083,2.342597723,0.1350655556,-0.4875507355,-0.1382550274,0.5581230819,-1.964094824,-9.509261343,-0.02474084496,-3.382312192
0.34022600000003,2.591025591,-0.09997045994,-0.5947194099,-0.1775540262,0.7792562909,-2.049683783,-9.39513429,-0.6735893057,-3.793861469
0.360239000000092,2.765979648,-0.6396225691,-0.5861649513,-0.1985270646,0.7834644781,-2.085385429,-9.501546436,-1.077689674,-3.982743104
0.380253000000039,2.820390105,-0.8518373966,-0.6554098129,-0.232396149,0.6347527173,-2.145793253,-9.440625615,-1.395862208,-3.985403352
0.400266000000101,2.768914819,-0.9338670969,-0.5116400719,-0.2304278049,0.466629025,-2.172807084,-8.931975259,-1.462103817,-3.951883581
0.420280000000048,2.735785484,-1.11305666,-0.1629066467,-0.1837305526,0.3603384859,-2.212581184,-8.536919806,-1.534996192,-3.600989315
0.440293000000111,2.545329571,-0.989328742,-0.3135223389,-0.09488359508,0.3002021942,-2.235522562,-8.362669627,-1.815392388,-3.266056882
0.460297999999966,2.113475204,-0.7719798088,-0.534599781,0.01385041857,0.3042067488,-2.252219518,-7.804803689,-2.0588103,-2.956929392
0.480311000000029,1.673668861,-0.5517506599,-0.4744348526,0.1334442612,0.5478062431,-2.317785819,-7.161541992,-2.231996165,-2.606567144
0.500324999999975,1.386209011,-0.4623790979,-0.6691241264,0.2996674726,0.9865432514,-2.427741501,-6.714344607,-2.357296573,-2.506007618
0.520338000000038,1.591648698,-0.5029863119,-0.8467326164,0.4990131756,1.4011171,-2.474235164,-6.776861774,-2.459186263,-2.489779764
0.540351999999984,1.528452873,-0.4517136812,-0.9400463104,0.6456887126,1.71449097,-2.454483853,-7.028792752,-2.541389704,-2.073974027
0.560365000000047,1.319300652,-0.4801542759,-0.9674375057,0.7567304373,1.860895011,-2.426859114,-7.189741294,-2.670148452,-1.996559156
0.580378999999994,1.372509003,-0.4168739319,-0.9886889458,0.8664825426,1.952592651,-2.293215407,-7.710362911,-2.747297313,-1.872322904
0.600391000000172,1.331453919,-0.3793758154,-0.8757860661,0.9169807302,2.099879026,-2.317174911,-8.125636578,-2.821785847,-1.747288558
0.620404000000008,1.33339119,-0.3122352362,-0.8056344986,0.8914601604,1.884040011,-2.143010404,-8.449395921,-2.937509166,-1.743032045
0.640418000000182,1.475895643,-0.1404896975,-0.8858447075,0.8763921393,1.401456475,-2.052263008,-8.570173581,-3.027693484,-1.926593131
0.660431000000017,1.311127663,-0.07411718369,-0.8461749554,0.9453520377,0.7339165045,-1.86404864,-8.614600923,-2.966506481,-1.995495068
0.68044400000008,1.027832985,-0.03601574898,-0.8264272213,1.045873324,0.02137614497,-1.600086967,-8.969219526,-2.904521412,-2.205127133
0.700458000000026,0.8030102253,-0.02451074123,-0.7928333282,1.054764787,-0.4933796393,-1.41037937,-9.432644632,-2.878982438,-2.3040905
0.720471000000089,0.8248471022,-0.1088522673,-0.566599369,0.9665287137,-0.856505096,-1.283047901,-9.530810038,-2.869405349,-2.315263722
0.740485000000035,0.9722840786,-0.1337848902,-0.5011610985,0.8710301055,-1.288997663,-1.114652726,-9.461908023,-2.92660194,-2.548572514
0.760498000000098,0.9366849661,-0.04320251942,-0.3932418823,0.8312559856,-1.657824543,-0.9615970585,-9.42572795,-2.951874812,-2.656048881
0.780512000000044,0.766577363,-0.01881659031,-0.428768158,0.8107580543,-1.523230579,-0.8621617622,-9.303885778,-2.974221415,-2.392944654
0.800525000000107,0.7516279221,-0.005483388901,-0.4096283913,0.7474995918,-1.190173268,-0.7687672575,-9.136552705,-2.9840645,-2.244233582
0.820539000000053,0.7478275299,-0.002813220024,-0.3786363602,0.6205753552,-0.8267084493,-0.6524313688,-8.925058577,-2.954003069,-2.358626684
0.840553,0.8107770681,0.02590227127,-0.2852008343,0.5427239703,-0.3477900906,-0.513968577,-8.799758063,-2.988853084,-2.590871361
0.860566000000063,0.9105780125,0.1556030512,-0.2845215797,0.4227228827,-0.004144447338,-0.4255967405,-8.924260351,-3.066800038,-2.684248103
0.880580000000009,0.7884209156,0.1248793602,-0.2122933865,0.2853460908,0.2092511472,-0.3542612526,-9.102500916,-3.019712581,-2.791724443
0.900594000000183,0.6291918755,0.1574501991,-0.25090909,0.2159110672,0.1888210956,-0.2808895459,-9.30814245,-2.910640054,-2.757406447
0.920607000000018,0.6947054863,0.193428874,-0.3472182751,0.1476299084,0.1623502672,-0.1967258934,-9.397794724,-2.82551029,-2.708988931
0.940620000000081,0.6164947748,0.1519173384,-0.3760304451,0.02518536316,0.2573737486,-0.1006843042,-9.180181609,-2.669084364,-2.803429736
0.960634000000027,0.5445991755,0.1770731211,-0.3411622047,-0.09467997236,0.3957007858,-0.05629476243,-8.881961505,-2.68132178,-2.761130916
0.98064700000009,0.5421545506,0.1434928179,-0.3590390682,-0.1899749537,0.4767422477,-0.04536706085,-8.947404861,-2.728143136,-2.728143162
1.00066100000004,0.4905047417,0.09963834286,-0.3167481422,-0.2363328404,0.3836870988,-0.01903198132,-9.149056117,-2.797311068,-2.701806068
1.0206740000001,0.345528841,0.09769570827,-0.2167248726,-0.217260263,0.136897549,0.00017633644,-9.343524509,-2.822583914,-2.628647698
1.04068800000005,0.3039495945,0.1456487179,-0.2530276775,-0.1982555721,0.02008653898,0.003705780125,-9.393272082,-2.811410666,-2.688504563
1.06070199999999,0.3842263222,0.08642303944,-0.3365242481,-0.1907215632,0.01323127351,0.005199006138,-9.267173661,-2.771240102,-2.764057239
1.08071500000005,0.4404244423,0.03043520451,-0.3416535854,-0.1492506034,-0.1827885972,0.02366071153,-9.307344225,-2.689834754,-2.792256488
1.100729,0.4695470333,0.08033430576,-0.2747588158,-0.1244766224,-0.3150748544,0.06486017878,-9.323040009,-2.619868729,-2.700475958
1.12074100000018,0.4030680656,0.06629490852,-0.1743450165,-0.1252911107,-0.2134676046,0.09642154889,-9.207050747,-2.62891372,-2.687972519
1.14075500000013,0.2863175869,0.05019903183,-0.129229784,-0.1202684401,-0.04568328518,0.1104035758,-9.078824043,-2.607099242,-2.782945395
1.16076800000019,0.2601127625,0.09815084934,-0.03067946434,-0.09155777097,0.1139561646,0.1243856003,-9.064458317,-2.580230157,-2.730005317
1.18078100000002,1.234366655,-0.0345890522,1.40873909,-0.07811873737,0.1965587189,0.1110823146,-9.133360333,-2.54298589,-2.68424805
1.20079499999997,-0.02203607559,-0.2904338837,1.322738647,-0.0545664885,0.08999667335,0.09472470151,-9.077759849,-2.442160315,-2.723088529
1.22080800000003,-0.1776332855,-0.2043864727,0.920538187,-0.02008653882,-0.08844385379,0.09553918822,-9.067118645,-2.4799366,-2.685844262
1.2408210000001,-0.217905283,-0.1625949144,0.05647110939,-0.005425773057,-0.1405031458,0.1043627966,-9.164219644,-2.520373291,-2.654984792
1.26083600000015,0.1586108208,-0.2085096836,0.2601315975,-0.03657990094,0.02239425232,0.07409103132,-9.159697215,-2.447746966,-2.683982028
1.2808500000001,0.7738087177,0.2000477314,-1.018030643,-0.08490612855,0.2252693855,0.0423260385,-8.975338088,-2.363681343,-2.6677542
1.2808500000001,0.5759841601,-0.02279281616,-0.1899792353,-0.1096801079,0.213527196,0.01300450639,-8.739635044,-2.392146561,-2.728409131
1.30086300000016,0.609525919,-0.064640522,-0.1866440773,-0.1015352375,0.08124093649,-0.01339844676,-8.644130177,-2.374854591,-2.790660302
1.32087700000011,0.7091426849,-0.08727693558,-0.2300252914,-0.1089334968,-0.01649750188,-0.014009312,-8.909894625,-2.405448066,-2.938041237
1.34089100000006,0.8137886524,-0.1192319393,-0.269384861,-0.1161281301,-0.04663352089,-0.03124928702,-9.252009816,-2.45253547,-2.995503823
1.36090200000012,0.9159417152,-0.1575045586,-0.3022105694,-0.1199969434,-0.04554753875,-0.05595539179,-9.331020885,-2.416621367,-3.120272133
1.38091600000007,1.018008947,-0.1973385811,-0.332460165,-0.1104267206,-0.1096883905,-0.05799160981,-9.501546542,-2.373524401,-3.079569472
1.40093500000012,1.118406415,-0.2377018929,-0.3599545956,-0.1023497242,-0.125231516,-0.04346659159,-9.453661177,-2.39666907,-2.99683396
1.42095100000006,1.214827299,-0.2754199505,-0.3854598999,-0.09936327156,-0.0484661166,-0.03179227851,-9.335543527,-2.419547717,-3.089412583
1.44096400000012,1.315010428,-0.3066928387,-0.4149215221,-0.08415951663,-0.03251574582,-0.01740300764,-9.277814865,-2.375918733,-3.011199607
1.46097700000018,1.419650078,-0.3302097321,-0.4492931366,-0.06305072664,-0.02661071511,0.02155662038,-9.234717899,-2.42752862,-2.97954199
1.48099100000013,1.81003654,-0.4184918404,-0.562494278,-0.05707782259,0.03101423993,0.03804998183,-9.424929725,-2.471955697,-3.013593912
1.50100399999997,2.226370335,-0.5035853386,-0.6662683487,-0.06576568302,0.07065260576,0.02230323313,-9.394868321,-2.46264463,-2.7659195
1.52101700000003,2.571170926,-0.5630609989,-0.7409543991,-0.07872960054,0.0146566252,0.02277835086,-9.265843391,-2.282275968,-2.820721785
1.54103000000009,2.830008268,-0.6006045341,-0.7909917831,-0.08124093794,-0.06896403887,0.0565795617,-9.206252522,-2.203530921,-2.874459929
1.56104300000015,3.016848445,-0.6248283386,-0.8234362602,-0.104182322,-0.08396417399,0.09567493531,-9.1900248,-2.264983945,-2.826042361
1.58105500000011,3.14566803,-0.6383991241,-0.8450536728,-0.1430061998,0.03325407763,0.1226208798,-9.14107524,-2.360488945,-2.844398472
1.60106800000017,3.219926596,-0.6434614658,-0.8581681252,-0.1555628727,0.179793862,0.1405395948,-9.067916764,-2.383899636,-2.935114834
1.62108200000011,3.251067042,-0.6481583118,-0.8619761467,-0.1508116987,0.2853378091,0.147326986,-9.005931536,-2.307814889,-3.05216829
1.64109500000018,3.272440195,-0.655226469,-0.8622941971,-0.1312640135,0.2853378091,0.1581868099,-8.984117084,-2.230400032,-2.975285477
1.66110900000012,-0.6241442561,0.1602170467,0.04643821716,-0.08375227244,0.2020565089,0.1455622663,-9.258926709,-2.16282826,-2.799173302
1.68112200000019,-0.6864549518,0.183631897,0.2017083168,-0.02653456065,0.1599746777,0.1051094118,-9.230727408,-2.118667179,-2.74437099
1.70113300000003,-0.7788496912,0.04567694664,0.3302693367,0.003601457788,0.05551672323,0.07667024102,-9.011518266,-2.072643889,-2.813006878
1.72114600000009,-0.3636456132,0.04456686974,0.2116522789,0.009302866749,0.0132991468,0.07049371137,-9.0141787,-2.153517167,-2.990715265
1.74115900000015,-0.1630446315,0.2076017857,-0.03618621826,-0.002778690308,0.08694234573,0.0730729219,-9.13548851,-2.276423295,-2.891219828
1.7611730000001,-0.3646780252,0.05808496475,-0.2575116158,-0.03379706997,0.08992879796,0.04022194652,-9.357890023,-2.3370782,-2.7768267
1.78118600000016,-0.7836028337,0.1672623158,0.08082532883,-0.0426885527,-0.0306831496,0.03703187385,-9.434506946,-2.235454586,-2.80609009
1.80120000000011,-0.5580844283,0.3038825989,0.2493114471,-0.00827647756,-0.2358659969,0.0455839874,-9.286593861,-2.116804971,-2.804227855
1.82121400000005,-0.07546299696,0.4494228363,0.5538492203,-0.003661051231,-0.2394633144,0.03886446895,-9.2035923,-2.10190728,-2.74729734
1.84122700000012,0.3594445586,0.376452446,0.3463072777,-0.05171578377,-0.1185798711,0.0262399202,-9.123783323,-2.139151573,-2.79039428
1.86124100000006,0.02776920795,0.4276890755,-0.203974247,-0.08124093629,-0.1345302454,0.01863804191,-8.97906261,-2.040454202,-2.705796533
1.88125100000002,0.02398520708,0.2862462997,0.3726973534,-0.05049405371,-0.172811129,0.01673757202,-9.086805132,-1.838537004,-3.285211033
1.90126499999997,0.04658210278,-0.07895803452,0.6473932266,-0.01187379521,-0.1810917457,0.04748445501,-9.614343431,-2.038325946,-3.465047704
1.92127800000003,-0.8151941001,-0.2006903887,1.279116154,0.003262088285,-0.1121997229,0.08257527318,-10.16875129,-2.392678632,-3.068130149
1.94129199999998,-1.044577777,-0.9031625986,1.520377636,0.003872953601,-0.01561514116,0.07721323023,-10.01338938,-2.148994658,-2.760864841
1.96130500000004,-1.021603763,-1.769368052,0.9539756775,0.00394082742,-0.06597758768,0.09811839627,-9.765714751,-1.719621354,-2.401191579
1.9813180000001,-1.316304505,-2.101788878,0.5212492943,0.01527577126,-0.1808881279,0.131987479,-9.082282384,-1.82869388,-2.462910679
2.00133200000005,-1.277726412,-2.437397599,0.6799211502,0.01181420172,-0.09523124398,0.1394536114,-8.895528899,-2.076900403,-2.571185112
2.02134500000011,-1.274952292,-2.645363569,0.6914486885,-0.02619519147,0.1003813812,0.1292725263,-9.037323422,-2.322978655,-2.485523303
2.04135900000006,-1.485168576,-2.520839214,0.2651414871,-0.02205488258,0.1179607262,0.09805052314,-9.005133629,-2.381239361,-2.542453819
2.06137200000012,-1.483787537,-2.417488098,-0.3640956879,0.01418978866,0.04010934481,0.07877433217,-9.052221086,-2.32856528,-2.602044635
2.08138600000007,-1.936072946,-2.145258784,-0.4428563118,0.004823188427,-0.02389575927,0.07035796261,-9.209711075,-2.246627887,-2.791458368
2.101406,-2.074055731,-1.578454614,-0.5549111366,-0.0119416688,-0.05206343325,0.05250712567,-9.457917637,-2.175331725,-2.592733569
2.12141900000006,-1.56166929,-1.092793286,-0.370824337,-0.03590116153,-0.01853371901,0.0330273122,-9.781942791,-2.155911446,-2.418483602
2.14143800000011,-0.7884396315,-0.7255805135,-0.624478817,-0.05246239652,0.06386521459,0.01354749801,-9.567788124,-2.02076798,-2.488183578
2.16145200000005,-0.03686022758,-0.2837792188,-0.7175645828,-0.02402322682,0.1129380572,0.02644354188,-9.056211366,-2.029014852,-2.639022907
2.1814710000001,0.2724460363,0.2707049251,-0.8444743156,-0.004611286218,0.4956790772,0.009746558524,-9.093455633,-1.969158027,-2.592999591
2.20148500000005,0.170407176,0.8375087976,-0.6432137489,-0.007258368863,0.608553393,-0.04136250023,-9.439295451,-2.021033949,-2.533940819
2.22149899999999,-0.2630890608,1.289383352,-0.1473183632,0.03597731637,-0.00353358034,0.02596842472,-9.845790121,-2.097118696,-2.589807219
2.24151200000006,0.02650082111,1.348066807,0.0162820816,0.1117924808,-0.5810727345,0.06933985733,-9.919746717,-2.089935886,-2.371396144
2.26152500000012,0.5252796412,1.324103355,-0.07422399521,0.09163392832,-0.6609603299,0.0649959267,-9.857229233,-2.131436613,-2.390018357
2.28153900000007,0.5211590528,1.332250595,0.01271724701,-0.00074247276,-0.5244658921,0.01083254134,-9.493565877,-2.18517481,-2.399063349
2.30155200000013,0.3716365099,1.10787499,-0.1046061516,-0.07587889747,-0.2898936371,-0.03633983081,-9.142937236,-2.287064499,-2.194751898
2.32156600000008,0.1247344017,0.8701638877,-0.1627149582,-0.08069794377,-0.09604573167,-0.0407516352,-8.798959944,-2.331225607,-2.107493877
2.34157900000014,-0.1908755302,0.5299673975,-0.1509580612,-0.04458902259,-0.17993789,-0.01950709936,-8.586135546,-2.370864126,-2.069185522
2.36159300000008,-0.5516141653,0.428783074,0.1130604744,-0.006376007792,-0.1726753803,0.008999945661,-8.768366284,-2.394806862,-2.005338152
2.38160600000015,-0.9229772091,-0.1402685344,-0.1983056068,-0.01893268205,0.00284656427,0.0005157060481,-9.0929238,-2.368469874,-2.10403551
2.401613,-0.8382191658,0.1228096485,0.1258950233,-0.0194077995,-0.1162721586,-0.03525384764,-9.36640305,-2.428060664,-1.956388526
2.42162700000017,-1.44486618,0.2890351862,0.07492733002,0.0217237932,-0.3361157775,-0.04095525626,-9.677392748,-2.478872564,-1.960911062
2.44163400000002,-1.705080271,0.07757675648,0.5152125359,0.002651223111,-0.3815234237,-0.05520877946,-9.502344873,-2.484725184,-1.980331315
2.46164799999997,-1.371243,-0.05870643258,0.45860672,-0.03114998672,-0.1596435922,-0.07679268552,-9.12112289,-2.46397482,-1.907172905
2.48165500000005,-0.7069764137,0.1661284864,0.3565511703,-0.02809566032,0.1544090153,-0.101295169,-9.038121435,-2.40012749,-1.857691209
2.50166800000011,-0.2385280132,0.09735490382,-0.1124830246,-0.01635347327,0.2007669012,-0.1007521765,-9.148790254,-2.280679782,-1.701265256
2.52168100000017,-0.0998134613,-0.3391280472,-0.08772993088,-0.01397788613,0.05327688318,-0.07550308191,-9.428122097,-2.070781681,-1.488972902
2.54169500000012,-0.1217699051,-0.6460749507,0.1868672371,-0.004000420656,-0.2012503056,-0.1110011389,-9.603702333,-1.941490822,-1.615603447
2.56170800000018,-0.2415881157,-0.3346913457,0.1727375984,-0.03318620432,-0.4741713305,-0.1082861813,-10.07058589,-2.018639697,-1.812998096
2.58172200000013,-0.6178789139,-0.1525040269,0.03163433075,-0.04988318889,-0.5600996945,-0.1114083827,-10.68006187,-2.114942736,-1.615071376
2.60173500000019,-0.7739691734,-0.3972533047,0.02175140381,-0.06868426253,-0.5157101585,-0.1116798785,-10.57178752,-2.076900403,-1.238638189
2.62174900000014,-0.7149350643,-0.2817853689,0.08075332642,-0.07411417448,-0.3865460952,-0.07991488526,-9.594657262,-1.880037771,-1.35888395
2.64176199999997,-0.5664219856,0.1841461062,-0.07025337219,-0.06155750073,-0.2098024132,-0.06545773976,-8.977200402,-1.657104188,-1.793045786
2.66177500000003,-0.4107271433,0.3591489494,-0.2688069344,-0.06318647539,-0.03835290365,-0.04068376103,-9.31559107,-1.882166015,-1.72973054
2.68178899999998,-0.3403644562,0.3453038186,-0.3440160751,-0.07981558558,-0.02056993671,0.0216244942,-10.08282333,-2.124519878,-1.066516413
2.70180200000004,-0.2309374809,0.3540355712,-0.2761330605,-0.05246239818,-0.2188975207,0.0467378435,-10.41057269,-2.111750391,-1.23118933
2.72181500000011,-0.2071418762,0.598205477,-0.09815883636,-0.03848037,-0.5015245047,0.03859297269,-9.580291748,-2.187037018,-1.276148478
2.74182900000005,0.2405283451,0.7938566208,-0.4148359299,-0.08341290222,-0.6695803205,0.006760106254,-8.881429354,-2.169212977,-1.277478629
2.76184200000012,0.4841892719,0.8054684401,-0.6023130417,-0.09814154274,-0.5025426182,-0.03620408227,-8.7925752,-2.280413734,-1.329088542
2.78185600000006,0.4611178637,0.8889036477,-0.7414736748,-0.09759855022,-0.304282907,-0.01034412085,-9.129369948,-2.346123272,-1.078753842
2.80186900000012,0.1830976009,0.6803282201,-0.5857477188,-0.095019343,-0.2564996696,0.03363817692,-9.0860068,-2.193687757,-1.10934733
2.82188200000019,-0.2932870388,0.4364007562,-0.3130259514,-0.08259841551,-0.2399384297,0.1064668869,-8.603427569,-2.054819822,-1.397458408
2.84189600000013,-0.5639455318,0.3774688542,-0.346997261,-0.06230411347,-0.1221093175,0.1296797693,-8.853762203,-1.923932817,-1.475937393
2.86190899999997,-0.5883924961,-0.007990583777,-0.3924665451,-0.0534805047,-0.0202984413,0.09099163446,-9.646267149,-1.869662603,-1.390009522
2.88192300000014,-0.734855175,-0.3762639165,0.06578063965,-0.01370639038,-0.2510697577,0.05759766905,-10.19668452,-1.913557635,-1.141004973
2.90194100000008,-0.8349347115,-0.2463883609,0.06299352646,0.05057020734,-0.7798754341,0.03974682921,-10.18950155,-1.981661439,-1.174790846
2.92196100000001,-0.7316398621,-0.6267133802,-0.03597545624,0.1036476112,-0.6585168706,0.03370605072,-10.06047662,-2.044976711,-1.201393902
2.94197400000007,-0.7061891556,-1.036003113,0.03942298889,0.06509522638,0.2239119108,-0.01210884235,-9.664623366,-2.232528236,-1.111741622
2.96198800000002,-0.693877697,-0.9614403248,0.01143550873,0.02376001138,0.4314024713,0.04157942492,-9.136286841,-2.271368742,-1.017300771
2.98200100000008,-0.8241698742,-1.121343434,-0.02721977234,0.1631051583,0.1643864797,0.0407649378,-9.149854236,-2.301164097,-1.174790819
3.00201500000003,-0.9323682785,-1.328793049,0.1118540764,0.16256217,-0.4284921802,0.07673811292,-9.08627277,-2.322712633,-1.077423679
3.02202800000009,-0.7254052162,-1.122824788,0.134373188,0.06176940497,-0.6492181288,0.05515420727,-9.106757482,-2.266314136,-1.106154958
3.04204600000003,-0.4807980061,-0.9695238471,-0.1639513969,-0.02422684672,-0.2989208632,0.004995384629,-8.937029627,-2.246627861,-1.174258775
3.06205900000009,-0.5026144981,-0.7681699097,0.001054286957,-0.1030963378,-0.1086702794,-0.03579683912,-8.67073324,-2.202200757,-1.238106105
3.08207300000004,-0.5824062824,-0.6710897386,0.1898117065,-0.1044538154,-0.2569747849,-0.003624602738,-8.569641643,-2.027684715,-1.130097681
3.10209299999997,-0.5064353943,-0.6355344653,0.13104105,-0.09882028235,-0.3714102043,0.05827640804,-8.599702941,-1.867800381,-1.234913747
3.12210600000003,-0.3666694164,-0.3861270249,0.1434774399,-0.1129380597,-0.149258878,0.03947533357,-8.977466477,-1.852636642,-1.569048113
3.14212100000009,-0.1888699532,-0.2538497522,0.1229696274,-0.1045216918,0.259002717,0.02732590276,-9.485584577,-1.931381702,-1.680780941
3.16213800000014,-0.09370398521,-0.3050532788,-0.04179954529,-0.09325462,0.3454740925,0.05338948634,-9.762256622,-1.967295806,-1.67891868
3.18215000000009,-0.1105980873,-0.1505740657,-0.01680421829,-0.04404603131,0.04628587426,0.06920411024,-9.84791851,-1.924996919,-1.901852303
3.20216500000015,-0.4183864594,0.009839937091,0.2626919746,-0.02877439972,-0.1819062365,0.03954320753,-9.512720002,-1.942288902,-2.27535918
3.22217300000011,-0.365073204,0.1191360131,0.3365302086,-0.1048610612,-0.2635585533,-0.0117015986,-8.996354527,-1.864874032,-2.579964161
3.24218600000017,-0.2077517509,0.04298694432,0.2734966278,-0.1813549631,-0.3051652677,-0.03484660397,-9.074833552,-1.727868305,-2.708988878
3.26220499999999,-0.3018894196,-0.06923337281,0.2535796165,-0.1733458406,-0.166363111,-0.09023171994,-9.360284275,-1.636087775,-2.939903418
3.28221900000017,-0.4394106865,-0.03527982533,0.222468853,-0.1898392025,-0.0783985133,-0.07339898994,-9.367467244,-1.745160275,-2.994173686
3.302232,-0.4325027466,0.05779354274,0.0177397728,-0.1644543608,-0.009981606026,-0.06742608382,-9.598913829,-1.771231294,-2.885367182
3.32224500000007,-0.3469984531,0.07359194756,0.07830381393,-0.119318203,0.0760146454,-0.05052547902,-9.64467091,-1.721749597,-2.968102694
3.34225400000014,-0.3526632786,0.04649151862,0.184592247,-0.07621826645,0.2171245168,-0.02222205572,-9.195345349,-1.714832836,-3.070524454
3.36227400000007,-0.2840182781,0.0002934336662,-0.02241039276,-0.01187379506,0.4113796684,0.06662490177,-8.736974716,-1.654443887,-3.235729403
3.38228700000013,-0.3710794449,-0.08102624118,-0.1457037926,0.05654311304,0.5893450644,0.2207665675,-8.24774456,-1.677854578,-3.344003836
3.40229399999998,-0.3066678047,-0.1838719696,-0.09036016464,0.07873788393,0.940999839,0.3060162067,-8.216086917,-1.657104188,-3.330170234
3.42230700000005,-0.1288001537,-0.09639114141,-0.02222585678,0.01724411513,1.276636322,0.29502063,-8.426517275,-1.623052292,-3.229344686
3.44232000000011,-0.02734255791,0.01238031685,-0.1631259918,-0.01295977782,1.332157241,0.2663778365,-8.572833909,-1.547765652,-3.313410309
3.46233100000018,-0.2407689095,-0.08425480127,-0.07360458374,0.0374705421,1.155888663,0.2451333006,-8.39592372,-1.510255324,-3.13889432
3.48234500000012,-0.3993775845,-0.05110181868,-0.07755279541,0.03299086417,0.881542272,0.2480518768,-8.002464559,-1.498549991,-3.023171001
3.50235300000008,-0.2704291344,0.05031555891,-0.1174082756,-0.018932682,0.7350703809,0.3079845475,-7.887007183,-1.323767953,-3.678138177
3.52237100000002,-0.1584854126,0.01655372977,-0.09702968597,0.01167845374,0.9319047398,0.2790702581,-8.392997318,-0.9021095369,-3.857442723
3.54238400000008,-0.1875915527,-0.0003007650375,-0.04758691788,-0.0002673557869,1.156703128,0.2075990256,-9.228599336,-0.5248782436,-3.368744691
3.56239100000016,-0.2688584328,0.04784601927,-0.01294898987,-0.1510153222,1.168309556,0.1769200116,-9.39007971,-0.2670946535,-2.71856602
3.58240599999999,-0.2417669296,0.07239893079,0.1148428917,-0.2991840856,1.083806568,0.1061275196,-9.261587037,-0.122108016,-2.782147328
3.60242300000004,-0.3354814053,-0.08651222289,0.2883896828,-0.381515142,0.862198227,0.04558398657,-9.324636035,0.6778457976,-2.342398855
3.62243600000011,-0.2998673916,-0.09657649696,0.257642746,-0.4797965719,0.4671041535,0.01646607619,-9.711710612,1.018630922,-2.004806108
3.64245000000005,-0.2328269482,0.006781801581,0.2795991898,-0.5919921531,0.2258123772,-0.02086457724,-9.664091216,1.013044291,-2.184376717
3.66245700000013,-0.160949707,0.0211456269,0.08167505264,-0.72102048,0.2797042612,-0.01136222906,-9.725278007,1.125309163,-1.648325192
3.68246999999997,-0.2080409527,0.03704953194,0.1084976196,-0.8325373133,0.3867414329,-0.006407433345,-9.994235039,1.396926337,-1.282267186
3.70248300000003,-0.1899440289,0.007239446044,0.0995349884,-0.9378776285,0.2883921315,0.06866111793,-9.771833632,2.185440832,-1.300091214
3.72250300000019,-0.1700854301,-0.0533324331,0.005530834198,-1.033512003,-0.0541675246,0.2216489265,-9.833818648,2.629179743,-0.8262908459
3.74252200000001,-0.1051404476,-0.02338241041,-0.06407499313,-1.12724585,-0.582022965,0.3820349905,-9.881172074,2.801035563,-0.7871843444
3.76253900000006,-0.1648476124,0.004228144884,0.02354001999,-1.160028961,-1.20069372,0.5722855661,-9.774759928,3.170019892,-0.8938625985
3.78255300000001,-0.1998357773,-0.05083909631,0.01630020142,-1.146046903,-1.540334808,0.8055682182,-9.752413432,3.388696935,-0.3870744242
3.80256500000019,-0.180025816,-0.07187744975,0.02934122086,-1.157246126,-1.333183593,1.013669663,-9.967631976,3.907456451,-0.791440828
3.82257400000003,-0.2462027073,-0.07640962303,-0.01931285858,-1.095820228,-1.138724817,1.134417362,-10.58296055,5.982228597,0.3492980919
3.84258799999998,-0.2790544033,-0.1004240364,0.008899688721,-0.8873115646,-1.304812286,1.257608506,-10.71890227,6.231765217,-0.07103014903
3.86260300000004,-0.1884286404,-0.08728186786,0.1154637337,-0.6152728995,-1.704793334,1.433130476,-11.05144045,4.6241427,0.5408400765
3.88261899999998,-0.174571991,-0.08162862062,0.09551906586,-0.5233716369,-1.618864947,1.535416431,-10.68352032,4.790145821,0.4796530513
3.90263400000003,-0.1785120964,-0.06559138,-0.0121049881,-0.3100439095,-1.52866047,1.610824386,-9.664889442,4.460533963,-0.2383633612
3.92264999999998,-0.1337172985,-0.07844305038,0.01247549057,-0.005561520604,-1.403636694,1.686368028,-9.548367924,3.672817575,0.6437938936
3.94266700000003,-0.1885068417,-0.164519608,0.1297502518,0.2056621023,-1.088498102,1.68792914,-9.819719103,3.441903035,1.177185112
3.96268099999998,-0.1236054897,-0.115081355,0.07636880875,0.4197364383,-1.02415367,1.746911579,-9.702133497,3.103778256,0.9356293811
3.98269600000003,-0.04670071602,-0.07827042043,0.0787935257,0.57258851,-0.7810292906,1.830939505,-8.954587724,3.106438557,0.4634251975
4.00270999999998,-0.06690907478,-0.08394521475,-0.005115032196,0.6414126423,-0.8094684548,1.844107032,-8.957514127,3.254883581,0.187019469
4.02271700000006,-0.03096365929,0.03291985393,-0.1529700756,0.7506217824,-0.951867938,1.830057131,-9.417480787,3.347728279,0.08246946821
4.04272700000001,-0.3285577297,0.1729453504,0.02845430374,0.8751704163,-0.9843116668,1.824152112,-9.542781406,3.14527901,-0.3772313015
4.06274000000008,-0.7079863548,0.07053273916,0.07441854477,0.9467095269,-0.8678400252,1.759671847,-9.603170395,2.808484316,-0.6930095421
4.08276100000012,-0.1704394817,0.0502024591,0.1001605988,1.050760243,-0.8009163472,1.693630536,-9.682979372,2.824712197,-0.9287125932
4.10278300000004,0.05764508247,0.004303216934,0.2334218025,1.036642459,-0.5412307448,1.587815099,-9.934378306,2.767515633,-1.270827836
4.1228000000001,0.1443958282,-0.05457945168,0.1833872795,1.039968279,-0.2392596934,1.396003432,-10.358165,2.639820973,-1.486578637
4.14281800000003,-0.1057889462,0.03436650336,-0.01263737679,1.071326017,-0.7293772532,1.141001119,-10.65079827,2.42167592,-1.760058006
4.16282999999999,-0.1381177902,0.007206320763,-0.03771066666,1.290423009,-1.117548188,1.032810105,-10.94689051,2.359956847,-1.946811464
4.18283900000006,-0.1811103821,-0.02728319168,0.05201625824,1.340446101,-0.7635178367,0.7936902841,-11.26399877,2.477276299,-2.091532018
4.20284900000001,-0.2494728565,-0.006711468101,0.04157876968,1.141779184,-0.5428597132,0.4211303559,-11.66144827,2.41236488,-2.189963367
4.22285899999997,-0.2570736408,-0.03970035911,-0.04713320732,0.9349673457,0.05653483007,0.0008550756094,-11.69150978,2.221887032,-2.55575535
4.24287500000014,-0.2384810448,-0.1117814779,-0.04028725624,0.7660970291,0.09732705375,-0.2697582261,-11.30789396,1.893339329,-2.865680907
4.26288799999998,-0.1999497414,-0.0986571312,0.04650092125,0.6054394643,-0.02056993642,-0.408764008,-11.21691153,1.529941625,-2.961451901
4.28290200000015,-0.1843631268,-0.02818186581,0.1532275677,0.476682653,0.1557664946,-0.6315261987,-11.31880124,1.177983205,-3.089146561
4.30291699999998,-0.1786189079,-0.04025389254,0.02252721786,0.4016819795,0.2011062702,-0.8794017368,-11.28794151,0.7988896834,-3.029289696
4.32293400000003,-0.1486840248,-0.05564464629,0.01825094223,0.3894646698,0.01465662672,-1.028249264,-11.15998088,0.2537931258,-2.889623668
4.34294399999999,-0.1678967476,-0.04106359184,0.1237006187,0.375686268,-0.2267708944,-1.123001231,-10.681658,-0.4495916002,-2.562406116
4.36399100000017,-0.04991841316,-0.02524152398,0.08600974083,0.3891253008,-0.1762048263,-1.282029801,-10.2493585,-1.127969464,-2.346655316
4.38399800000002,-0.09741377831,-0.01681315899,-0.005378723145,0.4316143692,-0.01880521576,-1.490538465,-10.04451497,-1.860883594,-2.404383977
4.4040030000001,-0.1542227268,-0.02912294865,-0.1275546551,0.3914330105,0.2059253198,-1.690155678,-9.720223745,-2.621198813,-2.414759133
4.42401300000006,-0.09165883064,0.02684853971,-0.06085944176,0.3013643258,0.3095009194,-1.837713573,-9.031204542,-3.507878648,-3.008007261
4.44402200000013,0.1277458668,0.007489711046,-0.006629943848,0.2537168397,0.2325318969,-1.954999699,-8.671531465,-4.575725132,-3.262066444
4.46403800000007,0.08785271645,-0.05067999661,-0.02012300491,0.261997458,0.2602923347,-2.102286074,-8.880631341,-5.184669071,-3.596998877
4.48405100000014,-0.1979489326,-0.01381014287,-0.04288625717,0.2858890792,0.2600208339,-2.28357731,-8.557138072,-4.704749942,-4.000035101
4.50406399999997,-0.2672128677,0.01136399806,-0.04573893547,0.3532199992,0.1557664937,-2.405953964,-7.04129627,-5.700236215,-5.412657208
4.52407700000003,-0.1266813278,0.04122163355,-0.01059937477,0.450754818,0.1192503298,-2.480208053,-7.277531253,-5.796805382,-6.137324492
4.5440900000001,0.1042761803,0.07491970062,-0.08220648766,0.5838555826,0.2819441077,-2.570412503,-8.474402693,-5.855598026,-7.851359155
4.56410600000004,0.1046788692,0.06822676212,-0.2316560745,0.7415266765,0.4957469404,-2.653829522,-9.381300608,-5.627876017,-7.365587446
4.58411799999999,-0.108448267,0.08618125319,-0.378172636,0.8747631775,0.5157697532,-2.686341127,-10.07590633,-5.124014166,-5.225637807
4.60413000000017,0.09510684013,0.2353164256,-0.3979086876,0.9923207959,0.4212892585,-2.704870754,-9.656642384,-4.384981314,-3.884311835
4.62414000000012,0.8778152466,0.507549718,-0.9049208164,1.114358081,0.4603846272,-2.715866301,-8.418270164,-4.003493521,-3.050572157
4.64415300000019,1.563853145,0.7830366492,-0.802164793,1.26469881,0.6176484889,-2.736432128,-6.698914846,-4.603392336,-1.887220608
4.66416800000002,1.666256905,0.917625159,-1.146354675,1.446261525,0.8799133367,-2.778446039,-5.448571417,-5.439792421,-1.699403061
4.68418100000008,1.483353257,0.8435487747,-1.037899494,1.64560726,1.250165529,-2.784826226,-4.407061789,-5.706620958,-1.224538558
4.70419400000014,1.419942141,0.7266504467,-0.6513967514,1.922600693,1.763292313,-2.725368659,-3.53394964,-5.911730554,-0.6890190906
4.72421099999997,1.33058393,0.5242381692,-0.3496394157,2.173259073,2.645042393,-2.737857448,-2.965974437,-6.122958766,-0.2237316776
4.74422400000003,0.4095665216,0.5507692099,0.1114683151,2.502719005,3.483760357,-2.833695385,-2.420611832,-6.515353839,0.5746259524
4.7642350000001,-0.725763917,0.4725285769,0.7638559341,2.99229357,4.149399863,-2.73364928,-1.984055718,-7.164734364,1.165479759
4.78424800000016,-0.8392111063,-0.05356049538,0.9401144981,3.598882834,5.035833094,-1.869546453,-2.253810724,-7.792300436,1.685037414
4.80426200000011,-0.4005976915,-0.543047905,0.2801346779,4.029814296,6.642069393,-1.769093037,-3.298246569,-8.200657315,2.234390484
4.82427500000017,-0.2757664919,-0.7909418344,-0.6245532036,4.32350466,7.202300655,-1.505877985,-4.570138507,-8.602629556,2.585284736
4.84428400000002,-0.3633615971,-0.4456758499,0.2508511543,4.419682079,6.907728036,-1.035308136,-5.132527139,-9.044240104,2.546976328
4.86429500000008,-0.353841126,0.5132898092,0.9632492065,4.385066297,5.754142814,-0.613200244,-5.062028991,-9.218224102,2.535537057
4.88430900000003,-0.08059340715,0.8429729939,1.181940079,4.341762808,3.543421533,-0.2607309967,-4.966790093,-9.05780771,2.436839686
4.90432200000009,-0.8417811394,0.2417514324,0.7530636787,3.999610424,1.14394285,-0.02486913837,-4.912253751,-8.738571167,2.397201141
4.92433600000004,-1.081328571,-0.340018034,1.035708904,3.523746358,-0.640598157,0.07083308283,-4.813556512,-8.715426339,2.346655316
4.9443490000001,-0.06501223147,-0.2325937748,0.6797842979,3.112634103,-1.476804826,0.03872872061,-4.649681674,-8.741763433,2.201402664
4.96436100000005,0.897105962,0.2377345562,0.7922029495,2.789486382,-1.873663598,-0.01407718547,-4.300383568,-8.712766118,2.162562185
4.984375,1.114807576,0.553581953,0.5162563324,2.513850345,-1.875971304,-0.03661132666,-3.816207992,-8.698134422,2.027684755
5.00438800000006,1.016540229,0.5228846073,0.1075150967,2.312264787,-1.650901397,0.01185064983,-3.861433215,-8.564055019,2.289724827
5.02439900000013,0.4839247763,0.5406086445,0.2684206963,2.074773987,-1.354971104,0.08657983152,-3.729748117,-8.354954931,2.250884347
5.04441199999997,0.3217797428,0.6177484989,0.4739201069,1.812984334,-0.7917533649,0.1322589748,-3.660048087,-8.257853826,2.197412226
5.06442600000014,-0.09681715071,0.6353266239,0.3596355915,1.523366319,-0.07405458473,0.05644381336,-3.554700004,-8.2046477,2.227739678
5.08443899999997,-0.6365627795,0.4538779259,0.3679509163,1.24711948,0.6016981105,-0.09654399401,-3.441637013,-8.109408802,2.40651226
5.10445300000015,-0.8322274089,0.1479520798,0.6149148941,1.073565841,0.8524243699,-0.2192600353,-3.391091267,-7.905629423,2.689302656
5.12446599999998,-0.4392934591,0.2048578262,0.2749164104,0.9936782387,0.6332594885,-0.2225858536,-3.287073268,-7.666201856,2.876588212
5.14447900000005,0.1847966984,0.1659698486,0.1437017918,0.9234287673,0.2863559127,-0.2003232092,-3.149003426,-7.557129277,2.946554184
5.16449200000011,0.4346188605,0.04687833786,0.07004594803,0.8826365405,0.00176058006,-0.2457308587,-3.373267174,-7.629223665,3.092072831
5.18450900000016,0.3410025835,0.2115530968,-0.3281574249,0.8349211878,-0.2415674097,-0.2748487658,-3.628124396,-7.681099574,3.202475601
5.20452300000011,0.3350141495,0.2202613354,-0.2726080418,0.7922963632,-0.3807089428,-0.2550295922,-3.741187387,-7.559789658,3.385238541
5.22453700000005,0.2201704532,0.3681321144,-0.3620243073,0.788834797,-0.5202577048,-0.2274727739,-3.515327454,-7.428370635,3.695164098
5.24455000000012,0.1763273999,0.5727066994,-0.2040867805,0.7893778019,-0.6361184849,-0.2010019537,-2.978211827,-7.455239773,3.841214948
5.26456300000018,0.3356402069,0.5663244724,-0.08892726898,0.7891741726,-0.6860058175,-0.1633998023,-2.744104942,-7.725792779,3.944700744
5.28457700000013,0.6497659683,0.5866224766,-0.1503717899,0.7502823936,-0.5271129807,-0.1581735114,-2.770175987,-8.079347399,3.815675947
5.30459000000019,0.8807482719,0.4447216988,-0.2873575687,0.7658255365,-0.4487186041,-0.1424267615,-2.7236206,-8.358413378,3.602851497
5.32460300000002,0.6511290073,0.2641274929,-0.1125354767,0.7463457187,-0.4010711114,-0.1325850421,-2.626253419,-8.732984437,3.13942639
5.34461699999997,0.3127220273,0.3871943951,0.07314658165,0.706843098,-0.4140350322,-0.1422231413,-2.628647751,-9.053018888,2.88935762
5.36463000000003,0.2216854468,0.4657263756,0.2239224911,0.6707341803,-0.4513656828,-0.1412050343,-2.765919447,-9.101968765,2.897604571
5.3846430000001,0.3297356367,0.3631465435,0.1842195988,0.6131770942,-0.4508226911,-0.1705944339,-2.839609941,-8.828755273,2.731069459
5.40466200000014,0.218714647,0.2493569851,0.1135296822,0.5423846046,-0.416749984,-0.1956399116,-2.716703839,-8.686162949,2.669882403
5.42467499999998,0.07106390595,0.2290771008,0.1952631474,0.459035433,-0.36509794,-0.201273443,-2.582890458,-8.759321319,2.584486617
5.44468800000004,0.1647841632,0.2211515903,0.2583143711,0.3514552746,-0.292676472,-0.2732197973,-2.526491986,-8.765440093,2.547774394
5.46470500000009,0.3653068542,0.2941269875,0.1232287884,0.2480154335,-0.2718391716,-0.3554150992,-2.55947974,-8.688557307,2.208319479
5.48471400000017,0.4895677865,0.1796309948,0.08708310127,0.155978399,-0.408265743,-0.4228817821,-2.783211443,-8.688291232,2.079028633
5.50472800000011,0.3167908564,0.1045792103,-0.007852077484,0.05070595593,-0.634964625,-0.4762306876,-2.993907611,-8.831681569,2.005604188
5.52474500000017,0.1975625902,0.1051266193,0.08769130707,-0.0802907031,-0.7808256679,-0.473990841,-3.10803469,-8.921333949,1.810869853
5.544758,0.3418103456,0.09976673126,0.1010355949,-0.2192964819,-0.6917750902,-0.4473163883,-3.23200496,-9.070576986,1.947875566
5.56477100000006,0.5932306945,0.1198472977,0.06442594528,-0.3103154037,-0.5069544315,-0.4348954691,-3.193164561,-9.170072556,1.928189304
5.58478500000001,0.7973328829,0.08309721947,-0.09681725502,-0.3858590656,-0.3870212071,-0.4058454302,-3.137032059,-9.163155662,1.818052663
5.60480200000006,0.7368817329,0.02425599098,-0.05296087265,-0.4411763151,-0.3167717059,-0.3841936489,-3.001356469,-9.303353733,1.586606092
5.62481500000013,0.4228131026,0.1655414104,-0.1283230782,-0.4595022731,-0.2305718329,-0.4057775537,-2.761929009,-9.664623366,1.313658781
5.64483100000007,0.179282397,0.2586512566,0.1787590981,-0.4518325163,-0.1453221962,-0.4501671029,-2.622795026,-9.942625258,1.145793517
5.66484500000001,0.1796441525,0.3171768188,0.211933136,-0.42522594,-0.1301863086,-0.4587870836,-2.612685866,-10.00647248,0.9914957815
5.68485900000019,0.3950092793,0.2707149982,0.05726194382,-0.4497284227,-0.1665667329,-0.4035377138,-2.708988931,-9.985189968,0.9068980879
5.70486700000015,0.655878216,0.2011318207,-0.2786023617,-0.5021270977,-0.1647341384,-0.3328809639,-2.88643127,-9.975879033,0.7746809125
5.7248810000001,0.9381902218,0.1842107773,-0.5235669613,-0.5709512565,-0.09611360605,-0.2656857951,-3.031683948,-10.01711379,0.633152677
5.74489400000016,1.184162617,0.2472958565,-0.7150344849,-0.6521284448,0.01920417846,-0.200391084,-3.040728993,-9.991042561,0.5227500068
5.76490600000011,1.392803431,0.438980341,-0.8827123642,-0.74199352,0.1630290076,-0.1416801487,-2.869937393,-9.981731627,0.5086503857
5.78492600000004,1.654680789,0.4895994663,-1.539384604,-0.7660208676,0.2828943415,-0.07007316624,-2.806356139,-10.03786405,0.3679202265
5.8049390000001,1.737656176,0.3138422966,-2.485126734,-0.7603873346,0.3181887766,-0.02310441621,-2.813006904,-10.03227743,0.2745435139
5.82495100000006,1.385841012,0.09700107574,-3.535510421,-0.8148900867,0.2653150029,-0.0133305726,-2.905053404,-9.88941892,0.1024217552
5.84496400000012,0.7976946533,-0.005172729492,-4.301370382,-0.8525601096,0.1819658313,0.01090041512,-2.806622134,-9.729534679,-0.02793320641
5.86497800000006,0.398000598,-0.02588796616,-4.530892849,-0.8916554915,0.07350331069,0.03262006864,-2.699677865,-9.641212569,-0.2372992353
5.88499200000001,0.3900409937,-0.08160233498,-4.432580471,-0.9342802962,-0.03916738974,0.05800491199,-2.849985096,-9.556614876,-0.4450690879
5.90500199999997,0.3172322512,-0.004395961761,-4.045478702,-0.9388278657,-0.05776484311,0.09676092035,-3.376725541,-9.514848179,-0.352756487
5.92501600000014,-0.09191679955,0.1680390835,-3.803373575,-0.8985786306,0.02239425165,0.09567493614,-3.653929366,-9.440891478,-0.2293183174
5.94502800000009,-0.5312337875,0.4303827286,-3.282830715,-0.8535103533,0.1373726635,0.0740231557,-3.2751019,-9.225672934,-0.08220343582
5.96504000000004,-0.5883936882,0.6304478645,-3.13444066,-0.7928989463,0.2167851478,0.06105923984,-2.751287805,-9.024819692,-0.0800751903
5.98505399999999,-0.4217815399,0.2693414688,-2.802585006,-0.6953641176,0.2613783148,0.04415863338,-2.505741596,-8.912022909,-0.05879274756
6.00506900000005,-1.021320581,0.1835029125,-1.73353076,-0.5934175054,0.2725096312,0.02366071194,-2.628647725,-8.831415706,-0.1189156481
6.02508200000011,-1.171564102,0.7422831059,-0.9061872959,-0.5095932153,0.2547266649,0.0009229494818,-2.65046223,-8.814389865,-0.3535545783
6.04509600000006,-0.9522929192,1.507370234,-1.049743056,-0.4554298355,0.209658386,-0.001520511431,-2.661901527,-8.858284738,-0.5248782502
6.06510900000012,-1.122184992,1.620144367,-1.027243674,-0.4003162185,0.2136629505,-0.02290079484,-2.694091241,-8.885153876,-0.5836709936
6.08511599999997,-1.732764721,1.181302547,-0.2166565061,-0.3296594719,0.2729168799,-0.05670200578,-2.676001125,-8.968953239,-0.5977706114
6.10513000000014,-2.211973429,1.573842525,0.4703707695,-0.2750209735,0.2700661785,-0.1053676009,-2.498292764,-9.11553616,-0.8215022948
6.12514499999997,-2.84220767,2.767285109,0.5565941334,-0.2424414886,0.2156312896,-0.1255940307,-2.336812231,-9.253872024,-0.971277482
6.14515900000015,-3.5286479,3.291266918,0.6827767491,-0.2156312913,0.1862418883,-0.1133088503,-2.295311424,-9.260256873,-1.151912212
6.16517199999998,-3.873589516,2.51540947,0.6373054385,-0.1466035189,0.3584380051,-0.1612957095,-2.379643122,-9.234452142,-1.214163356
6.18518500000005,-3.833027601,2.073281288,0.318657659,-0.1041823236,0.4911993941,-0.2872696966,-2.520373265,-9.300693618,-1.165479766
6.20519899999999,-3.542758226,2.005606174,0.1579078287,-0.06420458357,0.3798182938,-0.3712975979,-2.487651507,-9.518040445,-1.260452668
6.22521200000006,-3.712215662,2.159536839,0.5044699162,-0.06773402666,0.0874853366,-0.3501888149,-2.341334767,-9.665155305,-1.502274407
6.24522500000012,-3.506823063,1.733675957,1.047826886,-0.1387301435,-0.134394495,-0.2941928407,-2.230932077,-9.570182482,-1.740105722
6.26523900000007,-3.11405611,0.9189977646,0.898335427,-0.236332842,-0.04140722882,-0.2743057807,-2.3429309,-9.446212133,-1.744628231
6.28525200000013,-2.898460269,0.08072519302,0.8503388166,-0.3289807306,0.1222367812,-0.2876090672,-2.457856099,-9.55794504,-1.89892594
6.30526299999997,-2.850642204,-0.4093780518,0.9938113093,-0.4202032752,0.2300205645,-0.268264999,-2.542719841,-9.640148481,-1.935372114
6.32527700000014,-2.849977493,-0.5789308548,1.011075526,-0.5226928956,0.2456994355,-0.2462738521,-2.740912596,-9.457917531,-2.108558072
6.34528999999998,-2.91927886,-0.4037041664,0.8720941842,-0.5911776688,0.2456994355,-0.2223822325,-2.913300382,-9.245891147,-2.369533989
6.36530300000004,-3.108734965,0.2538256645,0.8674150407,-0.6348205937,0.2041605976,-0.1863411847,-3.112025208,-9.157302962,-2.39666907
6.3853160000001,-3.209599972,0.7249307632,0.5852342844,-0.6794816388,0.1664905714,-0.1246437944,-3.202209552,-9.170870675,-2.528886239
6.40532900000017,-3.025964141,0.3022532463,0.3836086988,-0.7291653487,0.1840699216,-0.04882863123,-3.151131656,-9.41003206,-2.964378277
6.425344,-2.659484982,-0.7117381096,0.5507555604,-0.7601158354,0.2058574508,0.01286875908,-2.93378475,-9.456587474,-3.051370223
6.44535700000006,-2.441845298,-1.291526794,0.541957438,-0.7789847983,0.2683693386,0.03581014358,-2.719364113,-9.192951096,-3.166561445
6.465371,-2.320556402,-1.083461761,0.427523613,-0.8061343498,0.2542515463,0.02467882054,-2.513456477,-9.001409319,-2.818859524
6.48538500000018,-2.177173376,-0.573474884,0.2995149493,-0.820523613,0.195744228,0.02576480268,-2.708456861,-8.906170315,-2.515052689
6.50539800000001,-1.918076634,-0.266020298,0.01695126295,-0.8384423455,0.1419880961,0.02203173791,-3.012529797,-9.064990467,-3.397742033
6.52541100000008,-1.530643344,-0.2449374199,-0.1376236081,-0.8755693634,0.137779908,0.01945252861,-3.156984356,-9.933314111,-3.127188947
6.54542900000001,-1.079380631,-0.2532863617,-0.3113123775,-0.8935559591,0.2367400742,-0.01217671623,-3.828445435,-10.62180106,-3.794393566
6.56544500000018,-0.6510722637,-0.3047165871,-0.4981139302,-0.8821531468,0.2950437731,-0.04319509574,-4.154066748,-10.56088013,-4.240792698
6.58545800000002,-0.2272794247,-0.4405097961,-0.5768678188,-0.8774698443,0.3227363262,-0.06009570054,-4.130656083,-9.331020991,-5.128270573
6.60547700000006,0.07410919666,-0.582420826,-0.6530474424,-0.8725150492,0.3681439724,-0.09315029863,-3.712988112,-9.49462986,-2.322446545
6.62549000000013,0.2842689753,-0.5840377808,-0.7588091195,-0.9059769048,0.3314241932,-0.1595988605,-2.920749187,-8.634021017,-3.979018741
6.64550300000019,0.3933280706,-0.4321570396,-0.9430473149,-0.9729005694,0.149997212,-0.2505499125,-2.287862592,-8.366926299,-3.015988164
6.66551600000003,0.4882928133,-0.2987947464,-1.084821105,-1.000796762,-0.1568607566,-0.3310483793,-1.609484739,-8.32037078,-2.90505343
6.68552900000009,0.6311013699,-0.003654956818,-1.183815837,-0.9891903136,-0.4787867433,-0.3785601093,-1.311264502,-8.247744666,-2.028482808
6.70554300000003,0.811263442,0.2802214622,-1.390715837,-0.9929912554,-0.7920248575,-0.3935602539,-1.119722525,-8.084135903,-2.030345016
6.7255560000001,1.015990019,0.3362007141,-1.527786195,-0.9860681097,-1.031144698,-0.4719546172,-1.395330151,-8.245084339,-3.408915255
6.74556900000016,1.210659027,0.3562407494,-1.517950535,-1.019597822,-1.196621272,-0.4927919176,-1.796238157,-8.873980522,-4.566414197
6.76558300000011,1.363617063,0.7880325317,-1.698062539,-1.092833797,-1.33433746,-0.4214564297,-3.34746223,-8.805344688,-4.635049926
6.78559600000017,1.488882303,1.449145317,-2.113604665,-1.099281801,-1.642688685,-0.2669753979,-4.024243938,-8.451257918,-4.005355703
6.805609,1.586342096,1.995276451,-2.346573353,-1.243921134,-2.512221416,-0.05079697549,-4.189980825,-8.224067794,-3.69303592
6.82562200000007,1.676479697,2.3594203,-2.417445183,-1.159621729,-3.357930369,0.02522181202,-4.330445025,-8.346442117,-4.715657287
6.84563200000002,1.877446651,2.460895061,-2.536953568,-1.072946721,-4.410043981,0.04117218198,-4.083036582,-8.719417042,-5.78509993
6.86564300000009,2.15480566,1.961164474,-2.505589128,-0.966384689,-5.405279318,0.1281865438,-3.812217527,-9.118994713,-6.226710637
6.88565600000015,2.273195028,1.160441399,-2.232202888,-0.8780807058,-6.082389408,0.231219146,-3.989659945,-8.948203193,-5.325133218
6.90566400000012,2.221491933,0.6513857841,-1.997645855,-0.6327843865,-5.929740906,0.2819209562,-4.603392336,-8.368522432,-5.859854486
6.92567800000006,2.057554126,0.3583078384,-1.958226204,-0.5959967242,-5.420822303,0.3035048677,-4.559497303,-8.039708826,-5.66671647
6.94569200000001,1.846253157,0.07190990448,-1.784121692,-0.540679468,-4.187078079,0.3434826036,-4.428078228,-8.125104586,-5.332316081
6.96570500000007,1.668769836,-0.2425379753,-1.715375543,-0.4978510406,-2.712924533,0.3830530908,-3.894154973,-8.408693102,-4.821271261
6.98571800000013,1.583940625,-0.4250683784,-1.698251784,-0.4672398998,-1.409881128,0.4372164773,-3.097659508,-8.621783786,-4.457075596
7.00573200000008,1.585866451,-0.3913755417,-1.744979918,-0.5421727002,0.1317391321,0.3839354515,-2.526492013,-8.695208126,-4.637976329
7.02574000000004,1.634382725,-0.517229557,-1.890984714,-0.5508605672,1.981439114,0.2519885633,-2.456525962,-8.535589536,-4.757158067
7.0457530000001,1.581540585,-0.742205143,-1.73248136,-0.2849305653,3.866229826,0.08827667766,-2.433381293,-8.287915124,-4.664579338
7.06576700000005,1.286201596,-0.5717077255,-1.528802991,-0.2794327703,4.678612815,0.1936169979,-2.218694634,-8.117123604,-4.718051487
7.08578499999999,0.8811272383,0.05320167542,-1.557819605,-0.3010845549,4.387094233,0.2853146527,-1.876845439,-8.042103079,-4.710602654
7.10579800000005,0.4107869864,0.4690966606,-1.558310866,-0.2302241872,3.705232938,0.2587759528,-1.322969834,-7.908023622,-4.601530181
7.125812,-0.1151168346,0.6347336769,-1.336349726,-0.1613321586,3.417990499,0.2128253165,-0.9686171744,-7.826352278,-4.668569883
7.14582500000006,-0.6690471172,0.6436834335,-1.001489848,-0.1374405407,3.561543862,0.1009691022,-1.158030907,-7.772082011,-5.030903392
7.16583900000001,-1.384811521,0.6424026489,-0.4533526599,-0.1214901693,3.949714714,-0.1061142134,-1.75127901,-7.933296469,-5.629206075
7.18585200000007,-2.082331181,0.8669996262,0.1295435876,0.02498174102,3.519258393,-0.2633102073,-2.347719484,-8.17032973,-5.846286986
7.20586600000001,-2.794884801,1.368601322,0.4005588144,0.02043418876,3.17934582,-0.2476992061,-2.514786588,-8.407894982,-5.49379656
7.22587900000008,-3.283168077,1.402362347,0.1475248039,0.01846584519,2.547032436,-0.2602558782,-2.581560294,-8.538250181,-5.520133601
7.24589300000002,-3.292705178,1.008356094,0.01874408126,-0.02164763885,1.768857996,-0.2214320004,-3.148471382,-8.571503851,-5.78722816
7.26590699999997,-3.1308887,0.7279214859,0.1066841185,-0.02429472174,1.128128217,-0.2134228779,-3.477285147,-8.502335866,-5.973715623
7.28592000000003,-2.887221098,0.6028904915,0.01611459255,0.06176940435,0.8213381237,-0.3044417997,-3.582633177,-8.47732883,-5.329655753
7.3059330000001,-2.583197594,0.6996164322,0.1368178427,0.09814982365,0.6277617216,-0.4136509266,-3.555764145,-8.344579697,-6.01867485
7.32594700000004,-2.371589661,0.7265100479,0.4908964932,0.0605476747,0.3751349996,-0.4460946553,-3.304365264,-8.311326027,-6.321949641
7.34596099999999,-2.055879176,0.5636005402,0.5951982439,0.04195022086,0.05829955389,-0.4359814458,-3.063873662,-8.465357674,-5.772330496
7.36597400000005,-1.7964167,0.4465289116,0.6474839449,-0.01004119937,-0.3432425327,-0.4079495304,-2.972093132,-8.658761978,-4.814886623
7.38598300000012,-1.52045399,0.2322974205,0.6331893504,-0.1334359762,-0.7320243253,-0.356772585,-3.044719458,-8.696538183,-4.04951681
7.40599700000007,-1.366246998,0.06830596924,0.6424392462,-0.2837088356,-0.8586091797,-0.3328130974,-2.607099242,-8.317444695,-3.899475522
7.42601000000013,-1.2718907,0.28565979,0.5984976888,-0.3643430438,-0.6371365984,-0.3853475054,-2.051627451,-8.051680088,-3.069726388
7.44602299999997,-1.197909474,0.3842010498,0.2894812524,-0.3065144685,-0.5159137812,-0.4714116355,-2.130106476,-7.931434313,-3.070258432
7.46603600000003,-1.107668698,0.2089810371,0.2029570639,-0.2695910599,-0.8287446433,-0.5282221039,-2.77523054,-7.946598,-2.755810287
7.48604999999998,-1.021660507,0.06502532959,0.1845479906,-0.2932111786,-1.435469588,-0.4596694476,-3.479679426,-7.946065956,-2.040188154
7.50606300000004,-0.8923051953,0.1862850189,-0.0730009377,-0.2261517478,-1.955180155,-0.3983114229,-3.882715649,-7.897116396,-1.770433187
7.5260780000001,-0.6732954979,0.2916469574,-0.3116930723,-0.07547165371,-2.395071003,-0.3411615921,-4.023445739,-7.901106887,-2.182780531
7.54609200000004,-0.4657526016,0.1200947762,-0.4968059063,-0.2067398114,-3.410125468,-0.1822008755,-3.59354043,-8.034920163,-2.638224761
7.56610500000011,-0.2821993828,-0.1169304848,-0.5696314275,-0.2058574491,-3.852663411,-0.02473339151,-3.263396555,-8.217151218,-3.361029731
7.58611800000017,-0.1342061758,-0.2693653107,-0.6688553691,-0.06691954099,-4.428844929,0.06133073444,-3.261534373,-8.421462695,-3.554700004
7.60613200000012,-0.03404223919,-0.2260379791,-0.7238229513,-0.02490558682,-4.867989434,0.08182865795,-3.307557636,-8.524948332,-3.784550375
7.62614500000018,-0.01594388485,-0.03033924103,-0.9093129039,-0.02870652607,-4.617398739,-0.018081747,-3.451746172,-8.482383516,-4.191843192
7.64615900000013,-0.0449129343,0.5478076935,-1.091797829,0.04792312565,-4.20655791,-0.1557300488,-3.739325179,-8.387144725,-4.47702784
7.66617200000019,-0.0877956152,1.190943241,-1.283024788,0.2393275748,-3.949451526,-0.2687401192,-3.74331567,-8.416940053,-4.485274739
7.68618600000013,-0.03905236721,0.9805541039,-1.399318576,0.3879035744,-3.507660256,-0.2954145736,-3.651269092,-8.597042825,-4.609245035
7.70619899999997,0.1921921968,-0.2758307457,-0.8574634492,0.2995996028,-2.745707671,-0.3165233599,-3.545122941,-8.713564131,-4.516932487
7.72621200000003,0.5518980026,-1.587298632,-0.2433438748,0.1751867185,-1.577461839,-0.3685826461,-3.344003836,-8.590923945,-4.754763815
7.74622599999998,0.7638785839,-1.872835636,-0.3079794645,0.05023083703,-0.2336261618,-0.3945783642,-3.345334,-8.496483379,-4.706878185
7.76623900000004,0.9763182402,-1.289188385,-0.4910328984,-0.0663765495,0.8890084094,-0.3874515957,-3.481541581,-8.504730119,-4.292402691
7.78625299999999,1.158368111,-0.04471683502,-0.8203864098,-0.1533230344,1.282066252,-0.3818859359,-3.011465629,-8.324893528,-4.316345321
7.80626600000005,1.226970553,1.120230675,-1.226672471,-0.1778255138,1.211273763,-0.3684468965,-2.242105312,-8.039176835,-4.302511851
7.826278,1.226513386,2.121957779,-1.460255325,-0.2559483995,1.134440488,-0.2929032312,-1.459177481,-7.999538104,-4.575193087
7.84629100000006,1.203144312,2.382708549,-1.023617387,-0.3033243914,1.238694853,-0.2452557484,-1.259920584,-8.047423893,-4.782430967
7.86630500000001,1.141427517,1.875076771,-0.33547768,-0.3750671148,1.462203635,-0.2626993408,-1.171864496,-8.030397468,-4.728958872
7.88631800000007,0.8358718157,1.051486015,0.46943748,-0.3971261448,1.717952556,-0.2984010279,-0.8449129793,-7.920793162,-4.739600076
7.90633200000002,0.2807462215,0.8484554291,0.7925007343,-0.3768997225,1.845962763,-0.3416367041,-0.427245044,-7.925315592,-4.909593476
7.92634500000008,-0.05653190613,0.7919273376,0.7254039645,-0.3798861669,1.916280137,-0.4169088867,0.02952938858,-7.813848866,-4.883522458
7.94635900000003,-0.04234659672,0.5080137253,0.807877928,-0.3612887164,1.86340634,-0.4404611223,0.5200896959,-7.585594654,-4.917042361
7.96637200000009,0.213850379,0.2263922691,0.8595497608,-0.3080755605,1.522475693,-0.4403253761,0.663746198,-7.536645042,-5.383393976
7.98638500000015,0.5975136757,0.08465480804,0.7774947584,-0.266604609,1.059304092,-0.4771130416,0.6387393077,-7.489823712,-5.167377101
8.0063990000001,1.030196667,-0.02216720581,0.6903298795,-0.2316495346,0.6898663441,-0.5282899737,0.6443259584,-7.208895365,-5.192384031
8.02641200000016,1.21293819,-0.2531046867,0.6288139224,-0.2528261956,0.5302947693,-0.613200234,0.6613518993,-6.996603065,-6.719931232
8.04642600000011,1.182157636,-0.5270166397,0.6730902791,-0.2879170113,0.2915822019,-0.7111423082,0.8616729048,-7.338186264,-7.385539638
8.06643900000017,0.9277901649,-0.5398917198,0.874278903,-0.2759033309,-0.2925407141,-0.7079522279,1.038583206,-7.778200732,-6.871302711
8.08645300000012,0.7080128193,-0.3740158081,0.7391117215,-0.3259264032,-0.624715666,-0.6614585916,1.083808396,-8.006188922,-7.626829412
8.10646600000018,0.6193445921,-0.3893480301,0.49107337,-0.3902030024,-0.7331781851,-0.6008471979,0.4538480946,-7.874237749,-8.143194516
8.12647900000002,0.5468412638,-0.6417331696,0.344071418,-0.4421944221,-0.4834021661,-0.5941276749,-0.6908812887,-7.444864538,-7.55766148
8.14649299999996,0.4338264465,-0.902636528,0.2890418321,-0.4647285673,-0.09950730572,-0.6041051348,-0.8638011548,-7.383943558,-7.167394638
8.16650600000003,0.2718553543,-0.8539433479,0.2012049854,-0.5190955765,0.1027569688,-0.5633129146,-0.8225664099,-7.375962628,-7.060982386
8.18651999999997,0.08421635628,-0.6819033623,0.0008042752743,-0.5922636456,0.2528262006,-0.4933349093,-0.3703145029,-7.529994276,-7.276201089
8.20653300000004,-0.04920113087,-0.405880928,-0.1597499922,-0.7047307293,0.5368106663,-0.3946462373,0.1734519046,-7.79815303,-8.241626157
8.22654699999998,-0.1118057966,-0.06404066086,-0.4336592704,-0.8414287898,0.896474527,-0.2417941789,0.01090724766,-7.965486103,-9.110747761
8.24656000000004,-0.03871357441,0.4124436378,-0.6959630847,-0.9275607997,1.471773836,-0.1172455392,-1.156168693,-7.983310223,-8.676585939
8.26657300000011,0.02261841297,0.8859958649,-0.9145713747,-1.004665573,2.220287389,-0.03016330382,-2.687972546,-7.863330682,-7.660615285
8.28658700000005,0.2281736135,1.174546719,-1.184611857,-1.123648564,2.649318404,0.06995072133,-4.106447299,-7.850827058,-7.659551038
8.30660000000012,0.368298173,0.9651527405,-1.181839287,-1.193830185,2.607779582,0.1941599912,-4.158057266,-7.824756092,-7.064440833
8.32661400000006,0.4443639517,0.7170882225,-0.9496190548,-1.223219567,2.635879331,0.2975319624,-3.565607256,-8.3621379,-6.27140379
8.34662700000013,0.3890581131,0.712720871,-0.9637010992,-1.294555068,2.692011091,0.4070804616,-3.72895005,-8.664082421,-6.550469822
8.36664100000007,0.1312038898,1.051301479,-0.966139853,-1.26088957,2.472031805,0.5243665907,-3.900805685,-8.541974492,-5.84176445
8.38665400000014,-0.2096313238,1.507030487,-1.152472079,-1.065752129,2.211260186,0.5172398223,-3.877927065,-8.263972494,-4.265533606
8.40666699999997,-0.1825572252,1.285431385,-1.502065182,-0.8785558409,1.599173188,0.5199547774,-4.108043538,-8.008849197,-4.731086943
8.42668100000014,-0.01242494583,0.3893294334,-1.450741231,-0.7701611916,0.2688444406,0.76083931,-4.826857938,-7.694401105,-4.129857964
8.44669399999998,0.1184521914,-0.3085560799,-1.253499687,-0.750749237,-1.292594989,1.079507351,-5.385256079,-7.140525553,-3.873936574
8.46670800000015,0.08308327198,-0.1597099304,-1.447436452,-0.7204096052,-2.463895188,1.530936771,-6.013354143,-6.702639315,-3.081697729
8.48672099999999,0.1781668663,0.1617283821,-1.893094182,-0.4956790739,-2.807540867,1.999945535,-6.559248765,-6.41825268,-2.816997316
8.50673500000016,0.4166669846,0.0935716629,-2.248006463,-0.04309579347,-2.4256822,2.225694153,-6.746534295,-6.218729761,-2.410236624
8.526748,0.6855570078,-0.01956415176,-2.408692956,0.3857994758,-1.774228295,2.207164579,-6.740149604,-5.93274694,-2.597256131
8.54676100000006,0.857378006,0.04336690903,-2.538036823,0.7695585953,-1.421080324,2.176146242,-7.143452009,-5.431013372,-2.846792751
8.56677500000001,0.8735175133,0.1833071709,-2.629271984,0.8303057684,-2.112783379,2.263024754,-7.730315261,-5.066817496,-2.434977478
8.58678800000007,0.8245694637,0.2225284576,-2.655148149,1.126100275,-2.601271947,2.33687165,-8.334204568,-4.917308436,-1.592192743
8.60680200000002,0.6251130104,0.1842236519,-2.618302703,1.374790337,-2.10273801,2.392596192,-8.271953371,-4.64409505,-1.81725461
8.62681600000019,0.4183442593,0.21677351,-2.544071674,1.661489725,-2.603511837,2.25549078,-7.97931989,-4.203548484,-2.062002632
8.64682900000003,0.2752505541,0.3105721474,-2.444410563,1.773142311,-2.820504665,2.106100374,-7.307326635,-3.755287038,-2.026886622
8.66684400000008,0.1454530954,0.6122617722,-2.415161848,1.873392079,-2.266178356,1.982298334,-7.056459904,-3.262864484,-1.600439681
8.68685800000003,0.007791042328,0.9713964462,-2.549631834,2.076131463,-1.727938268,1.892365363,-7.20277675,-2.806622134,-1.20910879
8.70687100000009,-0.02562201023,0.6075086594,-2.691156864,2.141494036,-1.376962304,1.779491027,-7.635608355,-2.198742376,-1.074497329
8.72688500000004,-0.07635045052,-0.2633252144,-2.17544508,2.19294254,-0.7238794499,1.732318706,-8.1259026,-1.486844672,-0.778937406
8.7468980000001,-0.07650268078,-0.1207957268,-1.42774868,2.139457835,-0.2869071878,1.751730627,-8.154368083,-0.8959908485,-0.229584347
8.76691100000016,0.06915950775,0.4832801819,-1.973928452,2.088280916,-0.2594861206,1.754649215,-8.694143825,-0.4541141159,-0.1577561067
8.78692500000011,0.01757800579,0.4802751541,-2.129822969,2.051493274,-0.3786048426,1.779287418,-9.314793163,-0.05852671713,-0.0340519088
8.80693800000017,0.08537566662,0.6135196686,-1.385373712,2.003031254,-0.5034928554,1.824423605,-9.610885196,0.3309419867,0.1292908401
8.826953,0.3735325336,0.85303545,-1.413917899,1.868844536,-0.4075870083,1.790893846,-10.11501291,0.7712225252,0.210430153
8.84696600000007,0.806024909,0.7814149857,-1.608381033,1.672621065,-0.07683741156,1.656435635,-9.548101849,1.05135268,0.4304374026
8.86698000000001,1.197870731,0.6539158821,-0.9537567794,1.514678439,-0.1882185093,1.526049799,-9.041579882,1.290248076,0.6557652553
8.88699300000007,1.240368307,0.6160750389,-0.7713585198,1.496352514,-0.9772527946,1.55021294,-9.085474756,1.647261063,0.9050358666
8.90700700000002,1.031036735,0.8348836899,-0.5526430309,1.494655649,-1.636919366,1.621819933,-9.150120205,1.957452655,1.314988918
8.92702000000008,0.9736982584,0.811879158,-0.07294663787,1.487461024,-1.665358557,1.704626123,-9.672072199,2.047104968,1.51743816
8.94703300000015,1.038439989,0.6381616592,0.07123312354,1.494044767,-1.386057403,1.734558529,-10.37226465,1.996293134,1.981129408
8.96704399999999,1.135141134,0.3828144073,0.3273558021,1.507823176,-1.056868891,1.75546368,-10.75029384,1.84305954,2.403851906
8.98705800000016,1.379741549,0.357483387,0.7192276716,1.530017932,-0.779468192,1.84139208,-10.67101691,1.6012378,2.493238158
9.007071,1.525539398,0.5455422401,0.779117018,1.513999714,-0.4573385782,1.96818055,-10.57045725,1.476469464,2.503879388
9.02708500000017,1.549365997,0.8198952675,0.8268094063,1.507891046,-0.1445755793,2.116620726,-10.75667869,1.372451531,2.623593118
9.04709900000012,1.469909787,0.9736609459,0.8802599311,1.5647694,-0.06740294066,2.159720739,-11.05410078,1.045766036,2.705264489
9.06711600000017,1.311458707,1.034079075,1.126945138,1.601353447,-0.1280822191,2.159856478,-10.94955073,0.7379687097,2.733995835
9.087129,1.089151144,1.407734871,1.303673744,1.600878345,-0.3011607081,2.13834042,-10.4970328,0.6371431284,2.448811054
9.10714300000018,0.9633868933,1.924343109,1.247913778,1.634815282,-0.7407121923,2.060013904,-10.43957022,0.6951377789,2.329629395
9.12715400000002,0.9640343189,1.794404984,1.205018103,1.673707035,-1.069425563,2.061778625,-10.66383394,0.7047148943,2.091798067
9.14716799999997,1.094124794,1.018791199,1.799051046,1.71734998,-1.248748435,2.009990811,-10.60796769,0.725465258,1.805549224
9.16718100000003,1.166740537,0.2489590645,2.224345803,1.716806981,-1.176937832,1.893587099,-10.40711466,0.8172458013,1.446940078
9.18719499999997,1.058374643,-0.05205440521,2.564017296,1.613978015,-0.8622065054,1.80378992,-10.24909242,0.9156770971,1.151912226
9.20720900000015,0.7663363218,0.1461811066,2.575397372,1.45440642,-0.5425203443,1.651412964,-10.01232497,0.8997152646,0.908228245
9.22722199999998,0.5477567911,0.6610517502,2.332087994,1.227232403,-0.2738075157,1.427293287,-9.589070638,0.7754790121,0.7150900761
9.24723600000016,0.5108549595,1.253604412,2.114260554,1.00087289,-0.1523132076,1.20120528,-9.155972693,0.7746809125,0.3107236624
9.2672500000001,0.6963120699,1.578660965,1.932536423,0.7978620198,-0.08389630127,0.9518365198,-9.275952657,0.9606362647,0.1149251892
9.28726300000017,0.6875482798,1.59130621,1.991857171,0.5948511362,0.120811431,0.6895716919,-9.794978248,1.038583226,0.2261259506
9.307276,0.3829710484,1.326910019,2.126122832,0.375822011,0.4821042783,0.41753305,-10.05861452,0.9898996088,0.2386293858
9.32728900000006,-0.02576184273,0.8172702789,2.221108675,0.1656164966,0.7555683123,0.1613768861,-9.681915283,0.9422801534,0.1151912212
9.34730300000001,-0.4104208946,-0.0272898674,2.195805788,0.01704049278,0.788147774,0.02535755971,-9.205720584,0.964892745,-0.04761946574
9.36731299999997,-0.7186248302,-0.5773630142,1.847644627,-0.05700994862,0.7802065214,-0.01204096836,-9.240038554,0.9859091507,-0.08406564924
9.38732600000003,-0.9487314224,-0.9256162643,1.517422736,-0.1352006992,0.8939632045,-0.06247128836,-9.671806124,1.025015632,-0.03431793913
9.40733999999998,-1.135023236,-1.123605251,1.239679813,-0.189431962,0.9663168126,-0.09511864103,-10.04451487,1.001338932,0.07422251917
9.42735300000004,-1.355234385,-1.234760761,0.9188301563,-0.2118303511,0.8338269194,-0.0700731679,-10.06978766,1.002137019,0.09896335916
9.44736699999999,-1.616504669,-1.307979584,0.5364569724,-0.2025316258,0.6232820352,-0.02846645605,-9.996629397,1.045766022,0.1417942743
9.46738000000005,-2.016201854,-1.229561806,0.2600249872,-0.2073506729,0.4474885795,-0.01923560372,-10.09399647,1.114933981,0.1934041993
9.48739300000011,-2.310734272,-1.189916134,0.1353002861,-0.2127805899,0.2577131142,-0.01760662968,-10.19269382,1.24342672,0.2532610728
9.50741100000005,-3.04623282,-1.150640488,-0.1433390528,-0.1998166657,0.1184358448,0.01673757163,-10.30495887,1.518236266,0.3878725204
9.52742400000011,-3.360717893,-1.365488052,-0.2425646409,-0.1578705874,0.1502008372,0.09234911369,-10.41429732,1.883230156,0.5102465649
9.54743800000006,-3.294607639,-1.564295292,-0.06402851641,-0.1461283978,0.3792753087,0.1266254427,-10.570723,2.242105352,0.6709290014
9.567452,-3.007131815,-1.294686317,-0.3854225278,-0.1841377931,0.5468559927,0.08637621088,-10.75242212,2.562672112,0.657893512
9.58746500000007,-2.405323744,-0.8602876663,-1.000376821,-0.2083009084,0.3931894634,0.05060665599,-11.28235499,2.816731347,0.7153560983
9.60747800000013,-1.783716321,-0.5842123032,-1.147155046,-0.2019207577,0.1058791692,0.07361591483,-12.06102647,2.77310231,0.6674706075
9.62749200000007,-1.306942105,-0.4664950371,-1.288720071,-0.1778933919,0.04085595699,0.1144760102,-12.62048859,2.546976328,0.5759561062
9.64750500000014,-0.7484055758,-0.1382799149,-1.384306312,-0.1491148488,0.1898392017,0.1230281235,-12.88572089,2.350911829,0.3054030521
9.66751900000008,-0.2082914114,-0.09322500229,-1.395275354,-0.1370332986,0.3835513559,0.1137293966,-12.80085733,2.079294668,-0.3123198483
9.68753200000015,0.2826691866,-0.531733036,-1.051715314,-0.1377120415,0.4085289538,0.1243856011,-12.64682558,1.508925186,-0.4769927429
9.70754600000009,0.4560388327,-0.3869738579,-0.3161423653,-0.1276666961,0.2608353115,0.1639560991,-12.44863277,1.061195791,-0.8345377843
9.72755900000016,0.9740355015,-0.4176697731,0.1546351239,-0.1204720611,0.1104267215,0.1939563668,-12.05623796,0.7023206121,-1.044967936
9.74757199999999,1.85407722,-0.6005430222,2.450950146,-0.1033678353,0.03148935715,0.1839789003,-11.48906061,0.1404641244,-0.9750019113
9.76758600000016,2.197835922,-0.9182476997,4.682234764,-0.0749286645,-0.01072821929,0.1813996931,-10.94742245,-0.5514812983,-1.051618722
9.787599,2.285025001,-2.584855556,7.090875149,-0.05388774888,-0.004483818801,0.181331815,-10.74949582,-1.151646157,-1.202458011
9.80760700000019,2.243070126,-4.756335258,9.766438007,-0.07017748803,0.02334448747,0.1292725239,-10.51698505,-1.673332042,-1.23411564
9.82762100000014,0.09957647324,-4.371918917,12.90865993,-0.134589836,0.08707809241,-0.02656598741,-10.2929874,-2.120263391,-1.214961449
9.84763500000008,-4.569491267,2.043034554,14.87526035,-0.2062646912,0.2725096312,-0.2377896127,-9.859623697,-2.636096557,-1.333345056
9.86764800000014,-8.276433468,11.83153915,15.33873606,-0.3221933444,0.6107253499,-0.5389461782,-9.278346909,-3.151131683,-1.454920994
9.88766200000009,-11.82509708,20.79551315,13.17500877,-0.428755386,0.9585112863,-0.8748542004,-8.869724062,-3.657121791,-1.505998863
9.90767500000015,-12.63786793,24.63399696,9.201234818,-0.5055886606,1.054077784,-1.164064964,-8.532663345,-4.263405429,-1.418740829
9.92768799999999,-7.138519764,25.45336151,6.744357347,-0.5418333279,0.8869722022,-1.426329772,-8.352560679,-4.857983483,-1.107219087
9.94770200000016,-5.376188993,27.14668846,4.259452939,-0.5695937607,0.616834018,-1.674951924,-8.09105285,-5.347479767,-0.850233588
9.967715,-6.256861687,22.1150589,1.087665439,-0.5860192511,0.3938003216,-1.930768702,-7.608207226,-5.844956875,-0.5964404543
9.98772900000017,-7.313135147,12.40294123,2.03125596,-0.5091859831,0.2209254569,-2.136494504,-7.137067106,-6.403355016,-0.4980091552
10.007742,-7.42037797,8.294796944,3.319838881,-0.4263119234,0.06386521526,-2.295319504,-6.620435927,-6.923444589,-0.03085954446
10.0277550000001,-7.490057945,8.349483967,0.8830220699,-0.4140267438,-0.0863397614,-2.433035665,-6.10699696,-7.48689731,0.4086229073
10.047769,-7.133177757,9.290269375,-1.047572911,-0.4068999853,-0.1865895374,-2.545027653,-5.687200758,-7.934094641,0.7608473301
10.067783,-2.997896671,10.83644485,-2.93634522,-0.3768997225,-0.1954131441,-2.652472019,-5.069743951,-8.388474676,1.229327096
10.0877970000001,0.9151587486,13.54946756,-5.049968481,-0.3452025983,-0.1922230737,-2.750549846,-4.3442786,-8.830883556,1.463433968
10.1078110000001,3.804619074,16.94976616,-5.600769043,-0.2989125815,-0.337812624,-2.849034945,-3.661112176,-9.163155556,1.434702661
10.1278240000001,3.55531621,18.84741497,-6.583814144,-0.2195001079,-0.5700771544,-2.89369599,-3.001888514,-9.337937779,1.743564129
10.147837,1.727723598,22.00325489,-6.458317757,-0.1347255814,-0.7732237776,-2.88826606,-2.344261037,-9.342992359,2.375386609
10.16785,0.741784811,25.12990761,-7.327143192,-0.06305072684,-0.9118223257,-2.884600798,-1.508925186,-9.167412122,2.673606873
10.187864,2.07013464,27.5004673,-9.371736526,0.02233465881,-0.9260758625,-2.885822588,-0.4916244266,-9.021361457,2.892549992
10.2078770000001,3.473163486,28.48633194,-10.81411743,0.09957517684,-0.9606236683,-2.891184648,0.6613518993,-8.938359896,3.183853414
10.2278960000001,4.115135908,28.83162689,-10.37824583,0.1445755859,-1.2303546,-2.889284187,1.526749227,-8.792309125,3.546719074
10.24791,3.289109707,28.05097103,-7.964467287,0.2015217957,-1.686603083,-2.867089351,2.192889717,-8.682970683,3.481275585
10.2679230000001,1.724003315,25.52751732,-5.619903564,0.2556173123,-2.081154121,-2.843537225,2.783743487,-8.71835253,3.661644247
10.2879370000001,0.5338329673,23.97573471,-6.05779767,0.2530381001,-2.290205797,-2.855075651,2.836417543,-8.527608765,3.118409872
10.3079500000001,6.725385427,21.17596149,-6.110875607,0.2837171091,-2.550298585,-2.845573372,2.694357236,-8.307867368,2.888825523
10.3279640000001,20.67547417,7.027462482,0.1633066535,0.3251880738,-2.919125583,-2.806613684,2.655250761,-8.145323065,3.239719841
10.3479770000001,32.00374794,-12.41174459,-6.935909748,0.3566815654,-3.211119122,-2.777835131,2.898668766,-7.600492318,3.016520182
10.36799,36.23097801,-12.9721694,-26.21438789,0.3771794935,-3.416301966,-2.797382832,3.594338576,-6.782714526,2.52063934
10.388003,43.45061111,-10.57647562,-40.51163673,0.4338542124,-3.597457488,-2.829555141,4.394824452,-5.817555745,2.388688167
10.4080160000001,36.88348579,-0.2863564491,-24.69131565,0.4924293955,-3.68515057,-2.859012392,5.127472613,-5.132261011,1.89254121
10.4280290000002,17.61803722,12.42893219,-14.51872063,0.5256197519,-3.734291236,-2.901162068,5.684274462,-4.796796534,1.790119463
10.4480430000001,8.862212896,17.17348003,-9.935471058,0.554737654,-3.915310992,-2.936117146,5.862248898,-4.604456531,1.852104571
10.468057,5.221408129,22.93043709,-8.40372014,0.533085876,-4.090561443,-2.962655915,6.291090065,-4.48926523,1.697806875
10.4880700000001,7.219313383,30.60527706,-5.409524441,0.4639902247,-3.978365845,-2.984646956,7.121637344,-4.312887139,1.170800394
10.5080830000002,8.169499874,32.41427422,-13.18410778,0.3336044351,-3.719223261,-3.041661051,7.929572211,-4.100860649,0.778671364
10.5280910000001,6.371335268,31.63570118,-19.57445431,0.242924884,-3.341640684,-3.056389782,8.269559224,-3.928206868,0.6962019073
10.548104,4.936113119,34.71554184,-10.95088148,0.1730147534,-2.884645594,-3.020280785,8.466421657,-3.78348626,0.6962019006
10.5681180000001,4.065368891,30.58719254,-6.288907051,0.1880827629,-2.439935684,-2.991909504,8.624709871,-3.849993891,0.6302263406
10.588131,2.154384613,29.10853004,-9.509751797,0.138874174,-1.997601363,-2.988583697,8.506592221,-3.95427786,0.5714335971
10.608144,-0.09482526779,28.92824554,-13.25055599,0.1372451981,-1.68863931,-3.021502521,8.13574579,-3.981412994,1.071837015
10.628158,-0.7336726189,27.4379797,-12.84641933,0.2888076504,-1.945270578,-3.017430094,8.063385593,-4.418235143,1.411824041
10.648171,1.079045534,23.64907551,-8.151874542,0.3966593047,-2.418962638,-2.886365626,7.732177522,-4.973440806,1.241830534
10.668185,2.873445988,20.08688354,-6.011914253,0.4196006954,-2.608195146,-2.724079026,7.484236982,-4.993127028,1.000806855
10.6881980000001,1.668922186,15.81733704,-6.360686779,0.4606644081,-2.758400122,-2.555344476,7.904831198,-4.791475932,0.9763320552
10.7082110000001,-4.061879635,11.65642166,-4.062984705,0.4367049171,-2.662833638,-2.339030266,8.273017459,-4.720445792,0.5014675541
10.7282250000001,-12.70302534,10.28826904,0.1687431335,0.430121147,-2.542357445,-2.124820179,8.951395247,-4.885650741,-0.2950278603
10.7482380000001,-24.02062511,19.72379398,4.23310709,0.425912963,-2.678851816,-1.880881362,9.255468263,-5.245058007,-0.5442984634
10.7682520000001,-33.60573006,22.1492815,2.240464449,0.4893072016,-2.86631963,-1.643865678,8.803216404,-5.088100009,-0.3205667933
10.7882650000001,-40.30473518,24.85797787,-3.604638517,0.524262276,-2.802789609,-1.419338743,8.670999209,-5.186531226,0.1186496206
10.8082790000001,-46.46117783,27.37440491,-12.14487267,0.5140811933,-2.455139505,-1.192096882,8.722343021,-5.546204514,-0.03830839528
10.8282920000001,-50.91999435,27.30797005,-17.95673084,0.4738998214,-2.059502376,-0.9154428111,8.487704277,-5.847883172,-0.8385282424
10.848305,-47.9454155,12.18905926,-17.65219021,0.441591839,-1.748843471,-0.6447616087,7.661413405,-6.174036609,-0.1654709913
10.8683190000002,-38.62645912,0.7721943855,-6.234894156,0.4463430047,-1.336577296,-0.4514566991,6.441397296,-6.66353284,0.6685347342
10.888332,-30.43505764,-2.223022223,-0.05102199316,0.3841026293,-0.8632246057,-0.2798035625,5.772862593,-7.319830153,1.667479383
10.9083460000002,-23.74400902,2.180084229,-6.281126738,0.2661377622,-0.6746708618,-0.09858021202,6.468532403,-7.365853363,1.635023673
10.928359,-15.18011713,2.48016119,-8.146350622,0.114032319,-0.7543548346,0.002551923506,7.407088121,-7.192933665,0.7677641246
10.9483730000002,-13.22436523,4.558331013,-2.277575016,0.01303593281,-0.8402153452,-0.06301428026,8.327287674,-6.348020607,0.415007636
10.968386,-11.79766464,11.44509172,-0.8255994916,-0.03956635276,-1.144561986,-0.1169061686,8.6749897,-6.201437844,1.291312204
10.9884000000002,-8.153114319,21.65500927,-5.502639413,-0.09909177737,-1.707168884,-0.08792400671,8.992364036,-6.486622492,1.724143863
11.008413,-5.137329578,27.31807423,-9.513598919,-0.2009026491,-1.859410087,0.1095212137,9.020829413,-5.695181635,0.8502335846
11.028427,-3.919306278,33.27292919,-9.582118988,-0.3514469961,-1.348794613,0.3859037989,9.346716775,-5.603401184,1.784266813
11.0484410000001,-2.262326241,40.37114906,-7.429541826,-0.4996157454,-0.4107092168,0.533665316,9.084410667,-5.216858758,0.3458396908
11.068454,-1.597808361,44.81770325,-8.328374863,-0.4992085165,0.3721485436,0.6379196644,8.153835879,-4.813822534,1.138078597
11.088467,-2.844166279,47.28026199,-10.14641762,-0.36230682,0.7523103423,0.7329431441,7.323820644,-4.610309124,1.471148849
11.108481,-4.160476446,48.81711197,-11.81046724,-0.2444098343,1.487927847,0.7375585503,6.565101518,-4.738801903,1.130363736
11.128494,-3.242267609,47.89291,-13.03961182,-0.3093651666,2.432597081,0.6659515765,6.434480561,-5.025050746,1.429648081
11.148508,0.4160473943,45.9463768,-11.10958767,-0.3027135266,2.89312156,0.5336653259,6.024793466,-5.388448503,2.055085884
11.1685210000001,4.321579456,39.6754055,-10.16410494,-0.2222829345,2.483773973,0.3904513485,5.145562596,-5.774724801,3.025033156
11.188535,12.91306686,27.26842117,-10.62143993,0.02606772271,1.306365119,0.3530528314,3.863561445,-5.863312986,2.704998467
11.2085480000001,24.34606266,15.68787718,0.6196813583,0.2865678089,0.06115025908,0.2669208265,3.429399649,-6.107262876,3.181725211
11.228562,34.9000988,5.50630331,-1.772122502,0.4122024344,-0.3829487695,0.1315802394,3.519317971,-6.487952709,2.915960683
11.2485750000001,37.86048698,7.721342802,-33.99772453,0.3494869338,-0.4967054625,0.1207882845,3.24929693,-6.900299973,2.987788889
11.2685880000001,49.86854553,-0.9340069294,-66.62213516,0.2821560138,-0.3560028308,0.1841825247,2.573313342,-7.074284024,2.8132729
11.2886020000001,55.22542,2.520827055,-32.9881506,0.2691242165,0.1088656237,0.2094316168,2.229601887,-7.370908048,2.616942406
11.3086150000001,34.41231346,10.95876002,-27.06209087,-0.0880962039,0.4388007224,0.2766267972,2.402787791,-7.831938903,2.420079735
11.328628,12.31189203,27.14311695,-18.63870907,-0.1549520103,1.316614091,0.4016505513,2.500420994,-8.779805607,2.415291203
11.348641,7.345916271,39.39873695,-16.76445198,-0.3932573166,2.306147933,0.4249991775,2.122657617,-9.474677616,2.623061048
11.368655,-0.9328917861,42.69584274,-25.85798264,-0.511425823,2.895836433,0.5893898143,1.745958408,-9.350707266,2.390018357
11.3886680000001,-2.899831176,44.20284271,-22.61159515,-0.5259508358,3.000633849,0.7389160328,1.91541983,-9.340332137,2.465038909
11.408682,-0.5071501732,39.68492317,-7.890919685,-0.6268793609,3.131834136,0.8456817004,3.551507632,-10.18311681,2.027684728
11.4286950000001,-3.216748476,37.5100956,-15.24080086,-0.784075333,3.456067774,0.946678102,4.154864868,-10.68777678,1.490037031
11.448709,-1.161086082,35.79856873,-16.41266251,-0.9105923242,3.674350288,1.055344244,4.363698853,-10.96019194,0.8414545854
11.4687220000001,-1.020861387,36.31974983,-15.67319775,-0.9853893717,3.21450456,1.103738334,4.131454176,-10.93811131,0.8842855096
11.4887350000001,-5.430294514,38.07066154,-18.79687119,-1.127788848,2.866990063,1.177449425,3.312346194,-11.00089465,0.8568843537
11.5087490000001,-4.931740284,37.47317505,-15.38370895,-1.209033926,2.22680329,1.26419229,2.455195824,-11.29485851,0.9781942798
11.5287620000001,-4.738080978,33.18036461,-14.94832325,-1.274735861,1.685508808,1.314351082,0.9079622047,-11.29432625,1.436830918
11.5487760000001,-8.02131319,28.82012177,-13.48645163,-1.352179991,1.29733789,1.363695436,-0.5134389309,-10.83967993,0.473002293
11.568794,-11.08596325,18.58662605,-8.860005379,-1.432339125,0.9449365271,1.394578073,-1.184900006,-10.80429808,1.942820999
11.5888070000001,-17.04015017,14.30491877,-1.238521874,-1.48480565,0.5850011243,1.370414946,-0.7983576225,-10.94316599,1.286789692
11.6088200000002,-23.64230347,19.04421806,5.34158802,-1.47170598,0.3559945391,1.294056813,0.1042839674,-10.52363576,0.3141820596
11.6288340000001,-31.50944614,29.58487606,-6.195790291,-1.410958793,0.1554271264,1.205141968,1.359682057,-9.902720557,0.8260248105
11.649028,-41.90975571,26.30793571,-16.16764927,-1.402474576,-0.1455936902,1.152268185,2.314997726,-9.640946494,1.441885485
11.6690410000001,-51.87651443,19.56610966,-18.3693676,-1.443538295,-0.4946013722,1.105367316,2.129042347,-9.446478314,2.030611078
11.6890550000001,-60.23139,22.91422558,-20.86539841,-1.419375208,-0.3800301908,1.161091791,1.654975944,-9.129635917,1.680248857
11.7090680000001,-52.85249329,14.58634996,-25.46141529,-1.396026558,0.158006337,0.9862485925,1.66801144,-9.037057241,0.9247221351
11.7290820000001,-45.7279129,0.9205164909,-22.48508644,-1.401931564,0.8797096676,0.824572934,1.540582816,-8.950597339,0.3862763329
11.7490950000001,-32.8725214,-4.147188425,-7.482275248,-1.312677397,2.038656778,0.6736892131,1.201925953,-8.877173,-0.04788549576
11.7691090000001,-27.3577652,-4.541174889,-5.528971434,-1.200753278,2.928348117,0.4435966346,1.191018714,-9.174062835,-0.3596732815
11.7891220000001,-21.60995388,0.7650976181,-6.440284491,-1.102064623,3.457221667,0.2368526856,2.031409171,-9.552092446,-0.8608747986
11.809135,-12.74698544,9.626757383,-12.83596897,-0.9866111014,3.786613782,0.01219001826,2.794118696,-9.795510292,-1.735051155
11.8291490000001,-11.00515985,19.80862427,-10.30132532,-0.908352481,3.46964256,-0.2038526543,2.825244268,-9.967631976,-2.54724235
11.849162,-11.52957821,26.19773769,-7.146601915,-1.050955567,2.359428909,-0.3870443503,2.812474807,-10.34300126,-3.089944654
11.8691710000001,-6.561985016,34.25881004,-7.472154379,-0.7287581033,0.8795739429,-0.4872262511,2.35862671,-10.47521824,-3.288137409
11.889185,-4.698224068,40.76142311,-13.41976595,-0.426447673,-0.2782872003,-0.5094888939,1.856893116,-10.2783556,-3.080101543
11.9091980000001,-3.230472088,47.26411247,-17.38362789,-0.4324884481,-1.017094778,-0.4281080663,1.826033579,-9.943423271,-2.625721375
11.9292110000001,-0.6831741333,47.75477791,-16.44386721,-0.3597954876,-1.093995929,-0.3753021657,1.408897705,-9.567522261,-2.545646111
11.9492250000001,-3.060583353,49.76033974,-11.31631041,-0.3205643627,-0.8983832995,-0.3858904938,1.158030921,-9.826370027,-2.298503849
11.9692380000001,-3.298591852,49.19444084,-11.60250378,-0.377306958,-1.122774449,-0.3133332829,1.212833206,-10.08574952,-1.861415651
11.9892520000001,-0.2622112036,47.55770111,-15.0334568,-0.533756329,-1.635901266,-0.1883095304,0.7818637358,-10.24696414,-2.228803767
12.0092650000001,0.3222018182,43.96425056,-17.34228039,-0.5990510517,-2.055701428,-0.1125622367,0.6296942797,-10.5640724,-2.171873278
12.0292790000001,3.352571487,32.40128803,-14.99081421,-0.5984401835,-2.450048897,-0.07631756614,0.8645992412,-10.43531375,-1.782404555
12.0492920000002,13.9749217,26.26721764,0.7324721813,-0.6359744602,-3.161367522,0.06112711514,0.449857629,-10.12192991,-1.601237787
12.069305,25.06071472,21.61714268,1.917766273,-0.6540967888,-4.024655925,0.3503378696,0.04868358694,-10.05010149,-1.592724813
12.0893190000002,38.98735428,12.34885502,-22.15896654,-0.6437120703,-4.66653951,0.7059293058,-0.04894961831,-9.853504817,-1.034592748
12.109332,46.11933327,0.9657530785,-65.30043793,-0.5688471662,-4.971632693,1.01129408,-0.08912022991,-9.578695403,-0.9342992372
12.1293450000001,57.1823597,1.251255989,-56.81424713,-0.3904745016,-4.908985032,1.25876236,-0.1348774814,-9.434772703,-1.322703812
12.149359,43.33366394,6.649538517,-25.13087559,-0.2106764995,-4.722263919,1.370550699,0.143124427,-9.49782202,-1.890146971
12.1693720000001,16.18170834,17.67429352,-20.99089813,-0.07336756176,-4.774526861,1.385482921,0.1253003846,-9.745762613,-2.681321727
12.189386,7.635276318,31.02091026,-17.60332108,0.1190549913,-4.105018589,1.3755055,-0.6895511481,-9.836745156,-2.437105695
12.2093990000001,3.586674333,40.22393799,-20.97186565,0.1560462746,-3.73931392,1.249870883,-0.9422801402,-9.782740911,-2.011722922
12.229413,-0.6767297089,43.01436234,-19.17863274,0.07038938978,-2.939894968,1.058466428,-0.6241076257,-9.629773246,-2.338674386
12.2494310000002,0.1248939782,40.87860107,-7.995102644,-0.005018529243,-1.824183464,0.8381477131,-0.4195301533,-9.559275203,-2.553095049
12.2694450000001,-3.367840767,36.35399628,-13.93849993,-0.01886480819,-1.27786639,0.6782367627,-0.1790385478,-9.671540154,-2.633968327
12.289458,-3.34414959,34.39852333,-12.69538498,-0.02639881315,-0.9234287474,0.594887601,-0.1862213728,-9.924801191,-3.010667589
12.3094720000001,-3.728914499,33.45553398,-13.36200953,-0.04974744014,-0.4508905609,0.5339368184,-0.2463442766,-10.33608415,-3.213648876
12.329485,-4.013932467,32.77898979,-10.99394751,-0.06902363151,-0.2179472852,0.4425106446,-0.5208877921,-10.39248297,-3.158846564
12.3494990000002,-3.671667099,32.88823318,-13.26752663,-0.08083369335,0.01146655219,0.411695881,-0.8693877856,-10.10117933,-3.307557636
12.369512,-2.870270252,30.07866955,-14.5195632,-0.1104945954,0.3071253184,0.4292073647,-1.008787778,-9.791785876,-3.086752309
12.3895260000002,-3.74887228,25.49634552,-14.71592331,-0.1662190755,0.3737096455,0.4604972369,-0.8680576351,-9.463504367,-3.115483602
12.409539,-5.860429764,21.16926384,-6.579238415,-0.2128484646,0.4208820131,0.4731896553,-0.4134114517,-9.339001973,-3.20407176
12.4295570000002,-7.058837414,16.21192932,-3.819711208,-0.2834373332,0.9067913691,0.4922622277,-0.1715896949,-9.378108237,-3.473028633
12.44957,-8.253260136,17.29936218,-4.355932355,-0.3340712753,1.632838647,0.4861535761,0.2537931306,-9.21449958,-3.516125573
12.4695840000002,-13.73027754,22.22343731,-6.019556999,-0.417284694,2.435515563,0.3709036708,0.8818912175,-8.709307671,-3.904796176
12.4895980000001,-20.42179871,23.30810452,-1.710590005,-0.4500677983,2.705110815,0.3187764982,1.184101886,-8.10701455,-4.349067158
12.5096110000002,-25.6454134,25.74574184,3.124525309,-0.4387328525,2.411759694,0.3680529628,0.8337397112,-7.893924077,-4.459469795
12.5296250000001,-28.68706512,29.69782543,2.425003052,-0.4391401013,2.258160988,0.4368771083,0.3953213791,-7.938351101,-3.943104559
12.5496330000001,-30.17789555,19.5478878,-2.87386322,-0.4028954274,2.232640505,0.470406827,0.1883496195,-7.956441191,-4.147948027
12.5696460000001,-30.95652103,11.28909349,2.139288992,-0.3674652378,2.300039291,0.4228272074,0.2992843555,-8.104620192,-3.560286628
12.589659,-28.13773251,6.164615154,8.726172447,-0.4004519648,2.545471377,0.3547496763,0.651508775,-8.305207147,-3.64009579
12.6096730000002,-20.04497147,4.389937878,3.480773628,-0.4069678585,2.808211221,0.1963319497,1.18756028,-8.580814785,-3.886706087
12.629686,-14.65861082,3.596025944,0.1820193827,-0.3571484023,2.974095133,0.04646634806,1.734785106,-8.96975157,-3.715116421
12.6497000000002,-10.84592581,-0.7626495361,2.64953351,-0.3685512245,2.88008968,-0.02629448981,1.902118325,-9.370393541,-4.002429459
12.669713,-8.465217352,-3.802561283,4.113112569,-0.4735521807,2.533864896,-0.03606833497,1.66801144,-9.668081495,-3.930069129
12.6897270000002,-6.103450298,-3.876039028,-0.564013958,-0.5570370754,2.277844508,-0.04903225228,1.201393909,-9.865210321,-3.917565611
12.70974,-3.192806721,-4.245440006,-0.6079600751,-0.5631457369,2.079924173,-0.1155486902,0.8818912241,-9.816792912,-3.548581282
12.7297490000001,-2.464871407,-5.198925734,1.679774523,-0.5594805413,1.920216825,-0.09572950709,0.7307858798,-9.483722687,-3.778963725
12.749763,-0.3721063137,-5.443862438,0.1374325156,-0.5273761749,1.902841091,0.007506719376,0.697266029,-9.134158452,-3.890962601
12.7697760000001,1.652094007,-4.977906466,-2.212057829,-0.4923532539,2.149087667,0.04755233063,0.5163652698,-8.836470286,-4.332041158
12.7897890000002,2.676743627,-4.500180244,-0.6346385479,-0.4242757128,2.710201343,-0.05880609558,0.3841480944,-8.855624411,-4.440847715
12.809802,1.916053057,-3.652044296,-0.3295093775,-0.35348321,2.97714946,-0.1617708256,0.2915694747,-8.902711656,-4.459203826
12.8298160000002,2.070413828,-2.676173449,-1.143581182,-0.3662435081,2.415900071,-0.1359787393,0.3152461814,-8.73378245,-4.571202649
12.849829,1.857316732,-1.207183123,-1.3895275,-0.4557692044,1.74082609,-0.03844392175,0.416071756,-8.613536835,-4.798392826
12.8698430000002,2.230944633,0.9445166588,-1.027812123,-0.5067425304,1.074168444,0.07958881785,0.5975045827,-8.536919912,-4.984082063
12.889856,2.856481075,2.899512529,-1.597241879,-0.6271508402,0.4381898592,0.2143185437,0.7773412267,-8.387676769,-5.159130149
12.9098690000001,4.000851512,3.511954784,-2.538315892,-0.8044375049,-0.05830783376,0.3145004378,0.8414545854,-8.299354553,-5.172697703
12.929883,4.692801952,3.431800604,-2.474417567,-0.884732359,-0.1537385599,0.2995003031,0.6672045853,-8.283126725,-5.232820564
12.9498960000001,4.255004883,4.090479136,-1.334323764,-0.8687819772,0.1277345668,0.1860829923,0.457306491,-8.321701156,-5.632132424
12.96991,3.653809905,5.207109451,-1.41072309,-0.8011795746,0.4326242043,0.03709974657,0.4080908398,-8.307335642,-6.022931258
12.9899230000001,3.499751925,5.698887348,-2.283606648,-0.7702969379,0.5185525914,-0.0642360097,0.7286576364,-8.199859195,-5.591429763
13.009937,4.041236997,4.658340216,-2.795496702,-0.7324232923,0.4313345982,-0.07794654204,1.085936626,-8.045827442,-5.680549992
13.0299500000001,4.137085915,2.811001062,-2.056949019,-0.6705901623,0.4431446592,-0.06837631679,1.321905719,-7.789374087,-5.84389268
13.049964,3.765870929,0.6408157349,-0.04427957535,-0.6152050363,0.4212213854,-0.02351166039,1.247949243,-7.536911011,-5.435535961
13.069978,3.357192397,-1.17971468,0.611492753,-0.5956573619,0.3236865699,0.08305038967,0.9675530526,-7.462422477,-5.694117493
13.089993,2.975267768,-2.039634943,0.7218368053,-0.5602271623,0.1860382615,0.1935491214,0.9260522922,-7.629223612,-6.240810288
13.1100060000001,2.055410147,-2.146953583,1.058927178,-0.5350459483,0.01241678684,0.2812422249,1.126373278,-7.711693181,-6.149029732
13.1300200000001,1.159502506,-1.659598589,1.291792274,-0.5302947561,-0.1713179077,0.3103601237,1.342390087,-7.730847359,-6.073211034
13.1500330000001,0.5729954243,-0.3318858147,0.644808054,-0.5537112753,-0.3422923055,0.2975998322,1.416612599,-7.697061433,-6.229370965
13.1700470000001,0.3203799725,1.077683926,-0.03245806694,-0.6042094628,-0.4298496544,0.2428255859,1.444811821,-7.60448281,-6.582127518
13.1900600000001,0.3641588688,3.086098433,-0.5493346453,-0.682943205,-0.4128811724,0.152010286,1.25140765,-7.439543936,-6.911207199
13.2100740000001,0.2185559273,4.712020874,-1.420578599,-0.7606588536,-0.3418171869,0.06357057393,1.053746932,-7.171651098,-6.732168674
13.2300870000001,0.4542138577,6.232935429,-2.456898451,-0.7380568186,-0.2444859826,-0.001724133457,0.8153835866,-6.885402309,-6.588778284
13.2501,1.141279936,5.998393536,-3.430370808,-0.6443229583,-0.2562960419,-0.03505022617,0.4514538149,-6.587714142,-7.076944245
13.2701140000001,1.101681471,4.883836746,-3.762404919,-0.6423545943,-0.4915470448,0.04714508572,0.2383633587,-6.55233203,-7.311583201
13.2901280000001,-0.1294907331,2.984420776,-2.198415101,-0.5945034954,-0.678675433,0.1657886894,-0.07422251792,-6.491943147,-7.232572132
13.3101410000002,-1.83057487,1.093055248,-1.083922088,-0.4833939009,-0.4012747341,0.2615587827,-0.4080908398,-6.286833551,-7.635608408
13.3301550000001,-3.202529788,1.27094841,-0.9206127524,-0.4569909473,0.01207741762,0.3475550413,-0.3109896945,-6.354937447,-8.137342029
13.3501670000001,-4.456851959,1.87114954,-1.613018513,-0.4665611585,0.1166711218,0.3825779789,-0.1282267181,-6.845231639,-7.917334769
13.370181,-5.064052343,1.176317215,-3.816420674,-0.5223535101,-0.05925806943,0.3895690077,-0.04655534381,-7.291896873,-7.906427542
13.3901930000002,-3.985313654,0.3035736084,-5.682847738,-0.6562008858,-0.3286496434,0.363030288,-0.0715622132,-7.598630163,-8.413747682
13.4102070000001,-1.520385742,0.229095459,-4.50736928,-0.7765413192,-0.5040358437,0.3169439038,-0.1537656498,-7.94154342,-8.477329148
13.4302210000001,-0.7124047279,-0.9980204105,-4.082921505,-0.8412251671,-0.3974737856,0.2900658316,-0.6640122135,-8.165807194,-8.137607892
13.4502340000001,-0.6947815418,-2.387897491,-3.473093152,-0.8532388608,-0.09991454447,0.3115139935,-1.180643506,-8.299088478,-8.090520541
13.4702480000001,0.4237141609,-2.385045052,-1.589635134,-0.8605692387,0.188074482,0.3876006471,-1.53313397,-8.479457219,-7.67897145
13.4902610000001,0.6516623497,-3.165369987,-0.9007992744,-0.8417002824,0.5047741731,0.4583931499,-1.834280531,-8.767302301,-7.29269494
13.510274,0.1376023293,-4.162182331,-0.8870545626,-0.8313155837,0.7957496577,0.5057691269,-1.982991603,-9.233919885,-7.330205335
13.5302880000002,0.626686573,-4.22261858,0.8370555639,-0.8271073898,0.9219272733,0.5357015398,-1.93058357,-9.825837665,-7.202776856
13.550301,-0.4212305546,-4.377133369,2.449047565,-0.8566325439,0.955253356,0.5577605565,-2.020767887,-10.28287835,-7.159679837
13.5703140000001,-0.5139808655,-4.10214138,1.021770477,-0.8139398694,0.7621520625,0.5323078434,-2.286532429,-10.6156825,-7.073485798
13.590328,-0.6762375832,-2.523410559,1.419308603,-0.7314051655,0.2425093611,0.5231448611,-2.183312575,-10.73832247,-6.748396556
13.6103410000001,0.4521644115,-0.7109079361,2.395965874,-0.693327917,-0.3359121506,0.6235982511,-2.025024414,-10.37359481,-6.658478313
13.6303540000001,0.6067976952,0.3475170135,0.5257992744,-0.6731014782,-0.7129517595,0.7373549408,-2.023162233,-9.786997159,-6.777659893
13.6503680000001,-1.295274258,-1.091156483,-1.336132407,-0.5190955732,-0.9509855906,0.8106587595,-2.214172125,-9.265577316,-6.757441521
13.6703810000001,-2.244156122,-2.250886321,-0.8537545204,-0.3234150724,-1.020352721,0.8322426743,-2.442692386,-8.951395459,-6.669651508
13.690394,-3.758200169,-2.58669138,-0.4064266682,-0.1745675703,-0.9390397668,0.8194823596,-2.735591994,-8.69520802,-6.472256872
13.7104060000001,-2.081475973,-1.77679944,1.268477976,-0.0425528054,-0.7726807992,0.7226941718,-2.719630162,-8.377833578,-6.352011045
13.7304200000001,-0.6966938972,-1.651335835,0.3587341309,0.1582861112,-0.6441954705,0.6231910057,-2.49057783,-8.062055217,-6.163395405
13.7504330000002,-0.2327172756,-1.338457704,-0.6353188753,0.3495548136,-0.6165029274,0.5541632507,-2.4325832,-7.864660793,-5.727903366
13.7704470000001,-0.1242771149,-1.824634075,0.9686380625,0.5166603956,-0.7363003823,0.4961310493,-2.483927117,-7.697327508,-5.464533117
13.7904600000002,-0.5892219543,-1.757226706,2.02057749,0.6587883764,-0.9068675306,0.4943663213,-2.634234349,-7.410812537,-5.37700918
13.8104740000001,-0.5814290047,-0.5911467075,0.4290399551,0.7776356008,-0.9756238063,0.5479866995,-3.022106886,-7.062844594,-4.71512519
13.8304870000002,-0.2789030075,0.07436776161,-0.8725783825,0.9444018073,-0.8995371461,0.6108379563,-3.391357236,-6.875293149,-3.914107296
13.8505,-0.5216155052,-0.4183454514,0.2498739362,1.230761872,-0.6860736873,0.744345963,-3.603649616,-6.622298135,-3.697026359
13.8705140000002,-0.6877369881,-0.5356664658,1.971652985,1.587846518,-0.370731473,0.9580809077,-3.682660659,-6.464541912,-3.364488178
13.890527,-0.9980654716,-0.5836365223,1.677029192,1.822622432,-0.248965664,1.144259055,-3.781358004,-6.264220979,-2.854241636
13.910541,-1.093084335,-0.6887488365,0.06181776524,1.958641741,-0.3094413148,1.226182885,-3.963056882,-5.919445462,-2.570387072
13.930554,-0.2772388458,-0.8544062376,-0.3699256182,2.073688004,-0.1311365498,1.244440966,-4.166570187,-5.550727155,-1.893871334
13.950568,-0.8886995316,-1.330809951,-0.1167224646,2.154457966,-0.1971778688,1.24104725,-4.457873715,-5.255965233,-1.396660315
13.970581,-0.6730728149,-1.641142726,0.003133296967,2.217988014,-0.4947371185,1.252721575,-4.738535828,-5.002970166,-0.8201721443
13.9905940000001,1.872040033,-0.7581781149,0.3076335192,2.284979476,-0.8655323188,1.329894198,-5.013611476,-4.740398142,-0.3769652628
14.010608,3.143615007,-0.1198956966,-0.292969346,2.357808246,-1.114154498,1.427972025,-5.143700441,-4.486870978,0.090450383
14.0306210000001,1.691550016,-0.3613116741,-0.683150053,2.426157236,-1.212300168,1.463198596,-5.216592789,-4.278835085,0.3245572514
14.0506350000001,0.9464645386,-0.183744669,-0.09599721432,2.521655851,-1.165670806,1.457497213,-5.233086586,-3.986999644,0.4030362599
14.0706480000001,-0.8981866837,1.902959347,1.139388502,2.626249552,-1.060126828,1.440460841,-5.406006389,-3.511603064,0.3359965682
14.0906620000001,-2.613671541,2.80227375,0.6972005963,2.623806079,-0.8664146794,1.397021545,-5.6882649,-2.972359154,0.6621500055
14.1106790000001,-1.994728327,0.7769973278,1.401064634,2.605276558,-0.7440380057,1.371433059,-5.983558814,-2.382037375,0.7667000029
14.1306920000002,-1.446095943,-1.047700644,2.554644227,2.625910229,-0.7791966796,1.384668469,-6.390319506,-1.658966409,0.5610583954
14.150711,-0.07829546928,-2.452709675,2.612838984,2.600321743,-0.835532056,1.43170513,-6.840709156,-0.978460292,0.6392713785
14.1707260000001,3.203218579,-3.313877225,0.6784353107,2.591158787,-0.7375899884,1.492859509,-7.280723572,-0.3413171723,1.06997482
14.1907390000001,4.317022085,-1.723983407,-2.583169997,2.615321901,-0.5909823312,1.578448468,-7.756652302,0.4320335868,1.428317944
14.2107560000002,2.908512235,0.629368782,-4.282412291,2.60147561,-0.4203473032,1.650055488,-8.136012077,1.166277846,1.900256104
14.230769,-0.4023156166,2.016654015,-1.977374375,2.544868734,-0.2750971201,1.693019695,-8.170595699,1.801824835,2.312603421
14.2507830000002,-2.647420168,1.820916891,-2.669637442,2.475365824,-0.2480833001,1.73754496,-8.86227523,2.705264542,3.085422145
14.270796,-3.739691496,2.378789902,-3.233702898,2.4016548,-0.2787623174,1.799242351,-10.10916032,3.822592735,3.933527443
14.2908110000001,-3.595320225,3.166692257,-2.117574573,2.316744539,-0.3079480959,1.896505647,-11.43798277,4.472239335,4.624674744
14.3108240000001,-1.805322647,3.332873821,0.6169163585,2.256540378,-0.2955271734,1.995465835,-12.67396079,4.313951121,5.155671808
14.3308380000001,0.9869806767,2.978215456,1.088685542,2.234209829,-0.274486257,2.092389796,-13.46353944,3.805566788,5.014941586
14.3508550000001,2.666565418,3.199491501,-1.457489192,2.274866316,-0.2163183143,2.23112411,-13.62049749,3.268451081,4.80318133
14.3708690000001,4.340270877,3.865164042,-2.736533403,2.248531209,0.06780190311,2.386826886,-13.8487516,2.78241335,4.712464915
14.390883,5.709994316,4.517108202,-1.937703013,2.201087316,0.4112439189,2.55454331,-14.18740845,2.293981287,4.497512129
14.4108920000001,5.841819525,4.198674202,-1.791441441,2.168100648,0.4647285607,2.689408753,-13.90754403,1.797568295,4.127463791
14.4309070000002,5.098098516,3.691519022,-1.309809804,2.171833727,0.3097045339,2.835541275,-13.15627416,1.383358783,3.805832863
14.4509150000001,4.953752041,2.86076951,-0.5465712547,2.218327284,0.1592959406,3.001628743,-12.3337077,1.005063368,3.30170499
14.4709270000001,4.739099741,2.222741365,-0.5439372212,2.196404139,-0.003669332299,3.027149386,-11.53401989,0.6586916082,2.807686249
14.4909400000001,4.080889344,1.872819424,-0.9218366742,2.089163224,-0.3112739176,2.923641682,-10.61249012,0.3109896978,2.496164481
14.5109500000001,3.032560229,0.9664473534,-1.276521862,2.097715404,-0.5972267224,2.877962483,-9.645734893,-0.005852671133,2.083019124
14.530964,2.390120387,0.376947403,-0.7912756354,2.024818844,-0.458696064,2.689476622,-8.93596575,-0.09896335916,1.750480917
14.55098,2.342234731,-0.3466815948,1.373832881,1.71599249,0.07900109566,2.297708379,-8.485043844,-0.01489770982,1.595917159
14.570993,1.902230382,-0.9196426868,1.264858007,1.316215105,0.6143905421,1.807658699,-8.208904372,0.05613244325,1.426189701
14.5910080000001,1.181781054,-0.7685551643,0.6047667861,1.009221388,1.025434977,1.311703987,-8.136543804,0.07980915987,1.319777502
14.611026,0.805011034,-0.744591713,0.5369167924,0.816866729,1.341523846,0.907243371,-8.248808649,0.110402671,1.211237046
14.63104,0.3667037487,-0.4302473068,0.5043912828,0.5664798551,1.600259172,0.584842268,-8.474934896,0.1875515299,1.246885114
14.6510490000001,-0.008049249649,0.4700164795,0.05980330706,0.2849388404,1.796279046,0.2471016405,-8.772622956,0.2354370207,1.474607242
14.671061,-0.3494414091,1.441869259,-0.2468199134,0.1004575383,1.710282789,-0.07238088196,-8.89526293,0.2838545839,1.538454572
14.6910750000002,-1.087608337,2.35172224,-0.4178381115,0.005705549239,1.34254196,-0.236024893,-9.061532127,0.3852122128,1.614805341
14.7110890000001,-1.853383422,3.042784691,-0.2136877477,-0.03474730502,0.8853432205,-0.2916136252,-9.336075677,0.5770202213,1.68530345
14.7311010000001,-2.042760611,3.353020668,-0.07936728001,-0.07329968901,0.4358142664,-0.3285370403,-9.515380118,0.7709564898,1.820712977
14.7511140000001,-1.836063385,3.265812397,-0.6646703482,-0.1339110972,0.01112717975,-0.3469987445,-9.63669014,0.7765431272,2.030345056
14.771129,-1.242325544,2.763740063,-1.818286657,-0.1808798446,-0.3900755362,-0.3300302625,-9.842331886,0.6336847411,2.150590844
14.7911430000001,-1.016570985,1.949975491,-2.140826106,-0.1662190805,-0.7041960226,-0.2724053148,-9.943423271,0.5911198457,2.218960683
14.811156,-1.368927062,0.9091768265,-1.905007899,-0.1309246421,-0.781300803,-0.2160699616,-9.963641697,0.7044488589,2.182514509
14.8311700000002,-1.857126236,0.136370182,-1.715514123,-0.09719130728,-0.6839017272,-0.1808433947,-9.955128564,0.7680301468,2.115740856
14.851181,-2.258565426,-0.3182239532,-1.617815912,-0.0697023703,-0.5309817725,-0.1569517818,-10.0676598,0.6863587697,2.123189714
14.8711940000001,-2.440925002,-0.2944235802,-1.74428165,-0.06189687095,-0.3397809631,-0.1385579523,-10.12592019,0.6621499989,2.11467674
14.891204,-2.342022657,-0.1584019661,-2.21664834,-0.04513201366,-0.1478335294,-0.1019060339,-10.24403773,0.7597832084,2.060140477
14.911214,-2.084558129,-0.1612610817,-2.733596087,-0.03162510445,0.03970209995,-0.05181508346,-10.3182604,0.86699352,2.115740829
14.931227,-1.817127645,-0.136300087,-2.812499881,-0.02483771276,0.1627575093,-0.000841772339,-10.31746218,0.9704793957,2.12771225
14.9512400000001,-1.674444377,-0.1815085411,-2.738291979,0.02471024584,0.1207435562,0.0764666179,-10.14480835,1.061195784,2.114676687
14.9712550000002,-1.366573632,-0.2190904617,-2.465302348,0.06971065452,0.1286848022,0.1458337613,-9.94315709,1.117062211,2.057480123
14.991268,-1.082107365,-0.2660660744,-2.511823654,0.08925833967,0.1480967452,0.1948387292,-9.866540485,1.220548073,2.132234706
15.0112810000001,-1.136402845,-0.3208270073,-2.27357161,0.09278778318,0.1226440246,0.2373956723,-10.02429655,1.260984739,2.309411075
15.031295,-1.106804252,-0.6589374542,-1.710264027,0.1003896602,0.116331752,0.2551107638,-10.09905126,1.299559169,2.392146561
15.0513090000002,-0.9694088697,-0.8301291466,-1.32342571,0.1257745085,0.1002456355,0.2580293384,-9.994235251,1.412356098,2.505741596
15.0713210000001,-0.8704681396,-0.9237565994,-1.048986793,0.1303899363,0.09040391445,0.2665814625,-9.857761383,1.518502302,2.639554951
15.0913340000002,-0.8948112726,-1.158761024,-0.7417541742,0.1105707495,0.05422711952,0.251717074,-9.806151496,1.643270599,2.686908378
15.111347,-0.9807977676,-1.231139183,-0.3752416968,0.08545740114,0.0547701108,0.2232100252,-9.801895142,1.821245035,2.702338192
15.131361,-1.201102018,-0.979013443,-0.2552731633,0.06407711779,0.0778472407,0.2018297431,-10.02376461,2.039922145,2.657378991
15.151376,-1.505968451,-0.7468695641,0.03105324507,0.06326262984,0.100042012,0.1961283353,-10.57178752,2.218162563,2.834023317
15.171392,-1.403333426,-0.9206614494,0.2736959457,0.07025364621,0.106150666,0.1792956011,-11.18924427,2.326170948,3.021840864
15.191405,-1.161055684,-0.9311332703,0.4223914742,0.04656564693,0.07520015745,0.1494989494,-11.87054857,2.319786257,2.957195441
15.2114180000001,-1.157790184,-0.7658843994,0.4918108881,0.01615813209,-0.05464264417,0.1178697083,-12.3036463,2.15564545,3.059617175
15.231434,-1.371200323,-0.496553421,0.6846574843,0.001700988233,-0.1560462722,0.1076207467,-12.26906215,1.938298464,2.856901911
15.2514470000001,-1.655481458,-0.194167614,0.6491157711,0.01242506706,-0.2091915475,0.1009012287,-11.9596688,1.708182083,2.439766036
15.2714600000002,-1.933870077,0.07519006729,0.6958281994,0.01602238484,-0.155435409,0.07816346486,-11.77078703,1.534996192,2.298503823
15.291473,-2.066090107,0.3324217796,0.8383993208,0.003737205678,-0.09007282721,0.03981470255,-11.90859085,1.083010296,2.303292327
15.3114860000001,-2.114906073,0.4951300621,0.9588536322,0.01127121028,-0.08369267815,0.02814038967,-11.86283345,0.5190255774,2.277753433
15.3314990000001,-2.085546255,0.5405030251,1.15291208,0.01649750231,-0.1206160891,0.03614951256,-12.04666064,0.03884045759,2.262855715
15.3515120000002,-1.844974756,0.5656681061,0.9922526181,0.007945388556,-0.1508199854,0.02495031576,-11.88757441,-0.4517198503,2.334684001
15.3715260000001,-1.60024482,0.782292366,0.6048314571,-0.01954354765,-0.1077879187,-0.00552507261,-11.17886904,-0.9675530526,2.019437777
15.3915400000001,-1.436576486,1.072855473,0.3138964176,-0.07832236009,0.02178338614,-0.05880609569,-10.69469346,-1.397458408,1.927657247
15.4115530000001,-1.368159533,1.073275089,0.1803056002,-0.1344540889,0.2458351884,-0.1230148201,-10.5534313,-1.798366427,2.101907253
15.431566,-1.204346895,0.8899054527,0.2427092791,-0.2193643534,0.461742113,-0.2035811577,-10.24403784,-2.267644273,2.004806095
15.4515780000002,-0.8041670322,0.7536139488,0.1005267203,-0.330406083,0.509661095,-0.3046454191,-9.99317095,-2.736922158,1.892275174
15.471589,-0.5050537586,0.7500686646,-0.08248081803,-0.4566515585,0.4345246752,-0.4486738708,-9.758000056,-3.150865661,1.814594269
15.4916020000001,-0.3674926758,0.6565566063,-0.1556797922,-0.6052954396,0.2341608703,-0.6022046672,-9.310802566,-3.46504773,1.636353811
15.511616,-0.4174320698,0.5550694466,-0.07282689214,-0.6453410519,-0.1545530462,-0.7395814723,-8.965761079,-3.826051156,1.661360674
15.5316270000001,-0.233497858,0.6057915688,-0.1760058403,-0.6380106741,-0.4491937194,-0.8824560642,-8.609546343,-4.349067158,1.738509536
15.551641,0.1237769127,0.8577752113,-0.4249375165,-0.7294368479,-0.4512978097,-1.085534818,-8.246414502,-4.793604268,1.699403061
15.5716540000001,0.5490242243,1.125250816,-0.6255895793,-0.8245960805,-0.3664554159,-1.291532185,-8.10275809,-5.085971832,1.793843879
15.591668,1.023750544,1.194668293,-0.8494315445,-0.8345735404,-0.2867035601,-1.438411315,-7.871577422,-5.252506839,2.031941202
15.6116810000001,1.357867599,1.168334007,-0.9546216428,-0.8399355676,-0.273060898,-1.609317833,-7.505785518,-5.434737682,1.937500397
15.6316940000002,1.596547246,1.082766056,-0.871008426,-0.8635556963,-0.4090802372,-1.776898543,-6.977980879,-5.637719154,2.026354565
15.6517100000001,1.771908402,1.091438293,-0.8448835313,-0.8053198854,-0.6494896478,-1.816333267,-6.382870621,-5.823408339,2.308080885
15.6717230000002,1.843723059,1.107961655,-0.7572139502,-0.767310467,-0.6359827386,-1.868392573,-6.030912187,-6.048470179,2.578101953
15.6917370000001,2.080470204,1.022547245,-0.6749968529,-0.7623556852,-0.5740817322,-2.014592952,-5.595952246,-6.236819744,2.321116421
15.711753,2.268979549,0.8094730377,-0.6484682262,-0.7154548102,-0.5611856845,-2.11586086,-5.070541965,-6.377550072,2.572515276
15.731767,2.327598572,0.5628876686,-0.2882478833,-0.6580334836,-0.522158179,-2.184345643,-4.746250735,-6.529719406,3.137564129
15.7517800000001,2.280235887,0.4281992912,0.1017328501,-0.5835757984,-0.5506652196,-2.22154061,-4.404135545,-6.62256421,3.48739428
15.7717970000001,2.09886241,0.1636719704,0.3225516379,-0.4679865142,-0.6319781741,-2.241631243,-3.840682851,-6.601547718,3.648342795
15.7918100000002,1.879759192,-0.1511468887,0.7788571119,-0.346967323,-0.7149200903,-2.284595437,-3.322189331,-6.647038937,3.666964875
15.8118240000001,1.675083756,-0.2378697395,1.23554796,-0.2081651621,-0.7153273424,-2.301428159,-2.987522946,-6.824215253,4.31075875
15.8318370000002,1.381213665,-0.1881175041,1.585361898,-0.08164818047,-0.7308026022,-2.29138279,-2.621198866,-6.807987478,4.571202755
15.85185,0.9866204262,-0.3074536324,2.046424031,0.004348070749,-0.7261192865,-2.295115868,-2.010392745,-6.627086639,4.4482966
15.8718640000002,0.8496198654,-0.5524132252,2.202807546,0.1137608252,-0.8093327085,-2.288871447,-1.405705333,-6.316096995,4.441911856
15.8918800000001,0.7753148079,-0.8353521824,2.227616668,0.2724500332,-1.015194323,-2.25479881,-1.084340466,-6.670981778,6.777925915
15.911893,0.6853392124,-1.276267529,2.362220168,0.3840347495,-1.153928571,-2.203282489,-0.4549122171,-5.731095791,5.911730607
15.9319070000001,0.4306643009,-1.509185076,2.61602056,0.4482434789,-1.247187323,-2.187196361,0.6326206074,-5.575467904,5.894438532
15.95192,-0.02592206001,-1.498017788,2.632833838,0.5089906388,-1.342414459,-2.182580921,1.717493123,-5.677623643,6.20250188
15.971933,-0.5086386204,-1.632759809,2.623785615,0.5620001554,-1.480537891,-2.118711604,0.7608473168,-5.23707713,6.640122149
15.991947,-0.9151313305,-1.556037426,2.886787772,0.5972267456,-1.539384551,-2.058575312,0.7988896966,-4.47782596,6.788833194
16.011964,-1.110782504,-0.900646925,2.59713912,0.6716844108,-1.508841303,-2.075475905,1.690890061,-4.46718465,6.50870302
16.0319770000001,-1.151767373,0.06626749039,1.828642011,0.7753278812,-1.601014071,-2.072489368,2.855571773,-4.742526425,6.119234403
16.051991,-1.024383187,0.8965454102,0.958927989,0.8633603454,-1.737847884,-2.024909814,3.666432778,-5.129600737,5.638517168
16.072003,-0.8318771124,1.149446964,0.40306741,0.9022521178,-1.758481569,-2.026606692,4.631591585,-5.510290517,6.037296825
16.0920160000001,-0.4613955021,1.03937149,-0.02430963516,0.8994014197,-1.678933329,-2.064140929,5.657139301,-5.234682772,6.029848099
16.1120330000001,-0.1075115204,0.8739213943,-0.4020956159,0.9997190502,-1.716331826,-2.043439388,5.279375977,-4.856121434,6.783512539
16.1320480000002,0.05839598179,0.6949114799,-0.8240038753,1.105059385,-1.894704527,-1.97556546,3.362359895,-4.771523635,7.441140016
16.152065,-0.06895327568,0.314845562,-1.031368613,1.100308206,-1.898301827,-1.912782113,1.610282832,-5.300392363,7.510307948
16.172084,-0.3115223646,-0.3140420914,-1.008527696,0.996732586,-1.794183215,-1.92696774,1.023685522,-6.11417977,7.355212212
16.192098,-0.7347086668,-0.8599772453,-0.8849327564,1.222073992,-1.843120363,-1.942035808,2.080624819,-7.010702663,6.933287779
16.2121120000002,-1.235542536,-1.053742409,-0.9554674625,1.117208812,-2.256268846,-1.789998174,3.625198099,-7.324352582,6.754781299
16.232127,-1.62957716,-0.8957214355,-1.163912773,1.013497459,-1.761264377,-1.653978917,4.093677971,-6.88886065,7.041030248
16.2521380000001,-1.830816269,-0.6476759911,-1.350302815,0.9008946286,-1.60562951,-1.661716461,3.570129765,-6.15807475,7.337920189
16.2721510000001,-1.925532818,-0.09545993805,-1.533099294,0.7865270906,-1.63562976,-1.563842323,3.041793161,-5.819683923,7.440076086
16.2921640000002,-1.954785109,0.9432382584,-1.779038072,0.5632897649,-2.087262869,-1.282912148,2.531280518,-5.802125984,7.728453159
16.3121780000001,-1.723383904,1.150893211,-2.130107284,0.4317501254,-2.244866027,-1.064086669,2.048967176,-5.947910733,8.088924461
16.3321970000002,-1.335347772,0.1924614906,-2.033370733,0.3855958548,-2.047895948,-0.9039721025,2.286000384,-5.976908048,7.465614955
16.35221,-1.187613249,-0.8097133636,-1.696017742,0.3997815053,-1.703435818,-0.6625445816,2.70712675,-6.057781378,7.068431377
16.3722210000001,-1.417287946,-1.116051197,-1.560030997,0.435958306,-1.012818694,-0.3835149109,2.474616051,-6.07188087,7.061780559
16.392235,-1.917580962,-0.8905291557,-1.421938896,0.29776701,0.1489112361,-0.2817040384,1.827097681,-6.023995452,7.159147686
16.412245,-2.113983512,-0.4530482292,-1.626624882,0.1008647799,1.260618084,-0.3642387225,1.643536634,-6.183879746,7.062844647
16.4322560000001,-1.895686507,-0.01854801178,-1.925157428,-0.1094764864,1.330120987,-0.3630169862,1.694614503,-6.413198153,6.892053074
16.4522730000001,-1.510677695,0.3539795876,-2.106303692,-0.2473284089,0.5528289105,-0.2801429414,2.114410665,-6.303061485,6.641452259
16.4722830000001,-1.161030889,0.6717166901,-2.102571487,-0.268708696,-0.6507792473,-0.1118156227,2.587679015,-6.370899306,6.421977096
16.4922940000001,-0.7847458124,0.660607338,-2.19949162,-0.1561737425,-1.325378113,0.08291464089,2.665359921,-6.730572542,6.180953397
16.5123130000002,-0.4454061985,0.2560834885,-2.159322262,-0.02510920829,-1.133498516,0.1798385928,2.104833563,-6.782182376,6.318491247
16.532326,-0.1412590742,-0.2589578629,-1.870081186,0.03842077756,-0.7463457187,0.197417938,2.056682083,-6.589842372,6.479971727
16.5523420000002,0.01066148281,-0.1734685898,-1.815287411,0.005162558622,-0.5574525992,0.2519885699,2.7042004,-6.559248818,6.056717184
16.572355,-0.09275054932,0.7727828026,-2.369412661,-0.09990626325,-0.2191690124,0.2908124493,2.562672112,-6.909877141,5.911198457
16.5923700000001,-1.05630064,0.8999228477,-3.159181118,-0.1710381276,-0.1848248169,0.2862648931,2.002145794,-7.155955262,5.925830152
16.6123770000002,-2.044835687,0.9421920776,-3.289746761,-0.1772146573,-0.5125200815,0.3512202336,1.332546969,-7.46162441,5.793080807
16.632388,-2.491684675,1.062796593,-3.087617874,-0.2245227744,-0.5447602106,0.4562211765,0.3663240481,-7.304400338,5.992869748
16.6524020000002,-2.706223607,1.12749815,-3.38172555,-0.2877133886,-0.2934230798,0.5060406393,-0.08113931461,-7.29242897,6.281513002
16.6724160000001,-2.30221355,1.429409027,-4.600885868,-0.3439129922,-0.2013181713,0.5037329263,0.1973946533,-7.437149578,5.940993998
16.6924290000002,-1.854267716,1.914571285,-5.114243269,-0.3840264744,-0.3581069261,0.5329187049,0.5286026763,-7.724728584,5.633994632
16.712444,-1.446877003,1.27104044,-4.951238394,-0.4154520962,-0.5394660069,0.5365160108,0.6770477096,-8.041038937,5.689062913
16.7324620000002,-0.9772481918,0.6598420143,-4.308384418,-0.3861984445,-0.5143526859,0.5156108472,0.8446469439,-8.212362607,5.829261038
16.7524680000001,-0.4082713127,0.5524339676,-3.859945416,-0.4070357349,-0.5353935791,0.5312897298,0.7044488589,-8.309729894,5.890714063
16.772479,-0.1964631081,0.684961319,-4.171377659,-0.4194566707,-0.1835352116,0.5426925388,0.7797354857,-8.402308252,5.761955314
16.792502,-0.4594073296,1.314822674,-4.812016249,-0.4854301082,0.1227118965,0.4743435184,0.9816526638,-8.653973367,5.660863717
16.8125110000001,-0.07622456551,1.737211943,-4.7421875,-0.4924211237,0.2568307585,0.4720357955,1.074231293,-8.982254982,5.583714909
16.832523,0.5465109348,1.588234425,-3.99953723,-0.4988012711,0.5267653068,0.4968776637,1.017566787,-9.310004552,5.59488821
16.8525340000001,1.177903652,1.728224754,-3.205536008,-0.5035524567,1.004733443,0.4804521634,1.300091214,-9.407105764,5.583182865
16.8725470000002,2.02857399,2.31973958,-2.895589352,-0.5261544651,1.5655756,0.4410174191,1.644068691,-9.256000307,5.731627941
16.892564,2.636980057,2.44417572,-3.080121875,-0.5531682769,1.844876806,0.303640614,1.704723663,-8.901381811,5.755836646
16.9125790000001,3.125444174,2.289353132,-3.000374675,-0.5441410475,1.870465212,0.07524488628,2.041252269,-8.603161494,5.305979093
16.9325900000001,3.701127768,2.132907629,-2.400579929,-0.625589735,1.656390892,-0.01998221649,2.739050335,-8.559798559,4.659258789
16.9526020000001,4.053140402,2.24480176,-2.087291241,-0.7093461686,1.113738941,-0.07876102875,3.292127874,-8.653175036,4.268193881
16.9726170000001,4.334179878,2.232563257,-2.109017253,-0.666381975,0.6172412568,-0.07509583525,3.31607061,-8.577622626,4.284687784
16.99263,4.417766571,2.022321701,-1.826215684,-0.6457482974,0.1344540889,-0.04611367546,2.871533606,-8.27860419,4.878201856
17.0126440000001,4.379952431,1.720703363,-1.232600212,-0.6006800201,-0.01140695774,-0.05934908614,2.145270255,-7.730847412,5.314225939
17.0326520000001,4.231369972,1.702601194,-0.9126949012,-0.6006800201,-0.06346625048,-0.1839655952,1.566919843,-7.130150477,5.445113023
17.052666,4.040269613,1.676744938,-0.8028678298,-0.6583049761,-0.1257066346,-0.2991476324,1.157232828,-6.814372116,5.482357237
17.07268,3.904214621,1.440971375,-0.4141685069,-0.6889839835,-0.2864320676,-0.3863656157,0.6993942724,-6.901896212,5.108584351
17.0926850000001,3.849295616,1.414657116,-0.03616723418,-0.6566759944,-0.4436280529,-0.4609590438,0.4796530538,-7.291896979,4.431004524
17.112697,3.670807958,1.710392237,-0.09696903825,-0.6466985345,-0.534307609,-0.525575012,0.6081457966,-7.519619147,3.77710157
17.1327100000001,3.40762198,1.983629465,-0.1936123967,-0.6080103914,-0.6209147308,-0.6032227741,1.545371387,-7.612729655,2.961717923
17.152724,3.261597395,1.950244665,-0.2167715132,-0.5740734471,-0.6684264739,-0.7093097038,2.91436455,-8.05992704,2.44748097
17.172738,3.023791194,1.816022396,0.09810453653,-0.4609276222,-0.671752274,-0.7748759124,3.909850783,-8.470146179,1.675726361
17.1927470000001,2.603108883,1.709815502,0.5655404031,-0.3852482107,-0.8534507619,-0.7122282916,4.076385895,-8.652377129,0.7893126044
17.2127580000001,2.170326471,2.059800625,0.7221830189,-0.4364930126,-1.027343717,-0.5826569862,3.890164534,-8.738836818,0.1090725139
17.2327720000001,1.89302361,2.594294071,0.4712164402,-0.4006555842,-0.8062105179,-0.5291044646,4.234674056,-9.00912412,-0.5267404517
17.2527850000001,1.529923439,2.746846199,0.4744448364,-0.3014239205,-0.2818166382,-0.5793311662,4.935132398,-10.10516983,0.5746259747
17.272798,0.9599545002,2.330736637,0.9646193981,-0.2140023162,0.3238901877,-0.6192410323,5.284962495,-9.825837771,-0.9327030414
17.292811,0.3952687979,1.977890015,1.482357979,-0.2005632801,0.5942319963,-0.6232455836,5.062295066,-9.739643839,-0.9489309192
17.3128240000001,-0.06461930275,2.065318108,1.597614646,-0.33251017,0.4454523789,-0.5948742893,5.234682825,-9.708784527,-1.078221745
17.332838,-0.5460165739,2.416836739,1.381271482,-0.5576479634,0.09983838846,-0.5829284721,4.931408034,-9.577099376,-1.240234362
17.3528510000001,-0.9945543408,2.578745365,0.9472308755,-0.7721295291,-0.4072476294,-0.6307795909,4.367689451,-9.704261886,-1.452792764
17.3728640000002,-1.439614117,2.293134212,0.5483751297,-0.9500270552,-1.145104991,-0.6271143887,3.975826343,-9.938368479,-1.180643506
17.392877,-1.806516767,1.792747498,0.2717394233,-1.113535325,-2.166878899,-0.5977249874,3.519583941,-10.05701849,-1.019429002
17.4128900000001,-2.204815149,1.210243225,-0.00302234292,-1.194373131,-3.265078915,-0.435574207,3.27297367,-10.05861441,-0.8959908287
17.432904,-2.604660153,0.4220495224,-0.4727712572,-1.262111333,-4.161489725,-0.164214293,3.351452669,-9.799500783,-1.131161842
17.4529170000001,-2.967902303,-0.0953707695,-0.8959562182,-1.290550497,-4.677127785,0.1087067269,3.494843139,-9.584814178,-1.69248626
17.472931,-3.351825953,-0.5230770111,-1.428624094,-1.233536416,-4.829979897,0.3108352555,3.985137436,-10.10516993,-1.666947299
17.4929440000001,-3.530669332,-0.8122200966,-2.10501802,-1.236658626,-4.854278776,0.459343387,3.722033156,-10.27436511,-2.157241649
17.512958,-3.736073852,-0.8796520233,-2.637093425,-1.287428326,-4.983917925,0.6312679847,3.388430966,-9.834084723,-0.8151175512
17.5329710000001,-4.048360586,-0.5420999527,-2.997760892,-1.126159853,-4.493868245,0.7376264466,3.558424446,-9.231259452,-0.1553618304
17.552985,-4.3300035,-0.2630462646,-3.388556004,-0.8383065926,-4.087167793,0.7471966611,3.56480919,-8.826627202,-0.4456011388
17.5729980000001,-4.773170948,-0.1659345627,-3.770095348,-0.6901378367,-3.767481592,0.75975332,3.751030498,-9.23817624,-1.477267543
17.5930110000002,-5.133176565,-0.1246900558,-3.907816648,-0.4430767861,-2.985438294,0.9025600486,3.772046963,-10.13363499,-1.169204209
17.6130250000001,-5.571686029,-0.05789709091,-3.782445908,-0.3019669122,-2.373079856,0.9808186756,2.347453462,-10.0684576,-0.3027427532
17.6330380000002,-6.021965742,0.04615545273,-3.528082609,-0.2433917241,-1.743549294,0.9453206195,1.759525961,-9.627378994,-0.0441610689
17.6530520000001,-6.468929052,-0.04775762558,-3.203231215,-0.2025316258,-1.01404043,0.8609533509,1.965965668,-9.358422173,0.2702870187
17.6730650000002,-6.830253839,-0.4340982437,-3.034797549,-0.1891604612,-0.4153924949,0.6926938958,2.94229775,-9.769173304,-0.5482889348
17.6930790000001,-6.695015669,-0.9527254105,-3.038738847,-0.1780291398,-0.05308154401,0.5151357452,2.92021717,-10.01179324,-0.6680026717
17.7130980000002,-6.051489592,-1.457745075,-2.849328399,-0.1189788365,0.1250874872,0.3947952853,2.462378608,-9.825039546,-0.5631866422
17.733111,-5.500185728,-1.597282171,-2.53742516,-0.1310603917,0.2893423637,0.3521704674,2.585550759,-9.740708033,-0.702586631
17.7531250000002,-5.162425756,-1.526673794,-2.224537134,-0.1760607974,0.5776028964,0.3880757656,2.800237391,-9.773429871,-0.7329141233
17.773138,-4.700059414,-1.273208618,-1.78294456,0.03353385446,0.9979460306,0.2204950634,3.100851907,-9.947147687,-1.027941982
17.7931510000001,-4.253885031,-1.098882675,-1.524871588,0.0510453259,1.709264702,0.08868392226,2.710053073,-9.908307181,-0.8946606782
17.813165,-3.867090702,-0.7550158501,-1.371704161,0.06475585534,1.753382736,0.09893288381,2.514254596,-9.715169059,-0.6898171769
17.8331780000001,-3.443638444,-0.2417159081,-1.214702368,0.03428046892,1.547453271,0.1363992865,2.503081322,-9.603968302,-0.5937801533
17.853192,-2.98703289,0.3250975609,-1.039456636,-0.1324178709,1.54684239,0.2549071411,2.663763709,-9.632433256,-0.56079236
17.8732050000001,-2.406118631,0.7333192825,-0.7601333261,-0.2659937392,2.165038016,0.3053374655,2.81619925,-9.652385924,-0.7464816901
17.8932180000002,-1.843013406,1.055486679,-0.3806142807,-0.248618015,2.556263208,0.07680598915,2.80103551,-9.73618571,-0.9164751901
17.9132320000001,-1.160659075,1.426192284,-0.03645508736,-0.1958799809,2.239359935,0.04178304691,2.884569089,-9.806683646,-1.027409924
17.9332450000002,-0.475128293,1.912626743,0.01011438668,-0.349614395,1.229260365,0.1798385961,2.838013781,-9.850578626,-1.007723669
17.9532650000001,0.3041576147,2.633459091,-0.1801872179,-0.4776924849,0.6131688158,0.322305931,2.502549224,-9.944221391,-0.8504996234
