"timestamp","linear_acceleration x","linear_acceleration y","linear_acceleration z","gyroscope x","gyroscope y","gyroscope z","acceleration x","acceleration y","acceleration z"
1.675415000E-2,-4.306921959E-2,3.980159760E-2,-1.131965637E-1,-4.921150208E-2,-6.058502197E-2,-4.229736328E-2,1.010452271E0,4.606536865E0,8.497169495E0
3.646850600E-2,1.231301725E-1,1.380109787E-2,1.575589180E-2,-6.108529227E-2,-1.380637033E-1,-3.352573940E-2,9.776175363E-1,4.638471331E0,8.360486712E0
5.615234400E-2,3.082485795E-1,-9.488821030E-3,1.785664558E-1,-5.255998884E-2,-1.321302141E-1,-2.774483817E-2,1.108274187E0,4.636420114E0,8.425813947E0
7.583618200E-2,2.612959146E-1,-2.401053905E-2,1.339788437E-1,-5.423191616E-2,-5.208042690E-2,-1.998029436E-2,1.391132900E0,4.606661115E0,8.634451730E0
9.555053700E-2,4.962727427E-2,1.519441605E-2,-2.673029900E-2,-4.464285714E-2,4.105486189E-2,-1.252528599E-2,1.521787371E0,4.583064488E0,8.684385027E0
1.152343750E-1,-1.266307533E-1,2.003109455E-2,-1.747372150E-1,-4.083905901E-2,7.179260254E-2,-2.790178571E-3,1.428412301E0,4.547491891E0,8.625555856E0
1.349487300E-1,-8.480015397E-2,-2.312266827E-2,-7.494759560E-2,-3.095136370E-2,2.979169573E-2,6.343296596E-3,1.204040527E0,4.631971087E0,8.468906948E0
1.546325680E-1,1.038239300E-1,3.453814983E-2,1.957321167E-2,-2.075413295E-2,-2.149309431E-2,1.775905064E-2,1.105880737E0,4.575195312E0,8.346803938E0
1.743469240E-1,1.279839277E-1,1.407556534E-1,4.242229462E-2,-7.513863700E-3,-1.753888811E-2,2.064732143E-2,1.133241926E0,4.551596505E0,8.452490670E0
1.940612790E-1,-2.380275726E-2,9.492516518E-2,-2.291226387E-2,-2.035958426E-3,4.242379325E-2,2.871486119E-2,1.317938668E0,4.600165231E0,8.530476161E0
2.137451170E-1,-1.734173596E-1,-5.340456963E-3,-1.229751110E-1,1.922607422E-3,9.325299944E-2,2.566964286E-2,1.375398908E0,4.709614345E0,8.569808960E0
2.334594730E-1,-2.340093255E-1,2.419853210E-2,-1.423275471E-1,2.376011440E-3,9.051077706E-2,2.902003697E-2,1.274841309E0,4.711323329E0,8.542101179E0
2.531433110E-1,-2.031558156E-1,5.102837086E-2,-1.512777805E-1,1.744297573E-2,5.718340193E-2,3.404235840E-2,1.087071010E0,4.654543195E0,8.427867344E0
2.728271480E-1,-1.509584188E-1,6.452810764E-2,-6.846404076E-2,3.661673410E-2,2.400861468E-2,2.795410156E-2,9.848022461E-1,4.559461321E0,8.381009783E0
2.925415040E-1,1.356748343E-1,5.494022369E-2,-1.905465126E-2,4.422651018E-2,-2.438354492E-2,2.917262486E-2,9.273398263E-1,4.652494158E0,8.359460013E0
3.122253420E-1,1.473080516E-1,1.506563425E-1,-7.987022400E-3,6.203351702E-2,-3.640747070E-2,2.460588728E-2,9.779597691E-1,4.655572074E0,8.336885725E0
3.319396970E-1,2.962195873E-2,5.119347572E-2,-4.862957001E-1,8.775111607E-2,2.233886719E-2,1.304190499E-2,1.016268049E0,4.696616037E0,8.416578020E0
3.516235350E-1,-6.873014569E-2,-7.730770111E-2,-1.074362516E0,1.060115269E-1,1.309923444E-1,2.232360840E-2,1.286130633E0,4.685328892E0,8.439492362E0
3.713073730E-1,2.199724317E-2,7.845461369E-2,-1.112591267E0,1.547110421E-1,2.685634068E-1,1.593453544E-2,1.319647653E0,4.817694528E0,8.492167882E0
3.910217290E-1,2.298355252E-1,7.455396652E-2,-1.333203316E0,2.297385080E-1,2.970254081E-1,2.353995187E-2,1.234826224E0,4.765363421E0,8.142615182E0
4.107055660E-1,-6.788814068E-2,2.232694626E-2,-1.283357739E0,3.697400774E-1,2.612588065E-1,6.432451521E-2,9.837733677E-1,4.707218715E0,7.595709664E0
4.304199220E-1,2.089845985E-1,-8.874166012E-2,-1.139260411E0,5.695517404E-1,3.548518590E-1,9.704153878E-2,1.055603027E0,4.686357771E0,7.097032819E0
4.501037600E-1,2.531078085E-1,-1.093149185E-3,-9.535588026E-1,7.876303537E-1,5.765795027E-1,9.521920340E-2,1.057312012E0,4.973658970E0,7.270442418E0
4.698181150E-1,-3.933187425E-1,2.617776394E-1,-6.868953705E-1,9.143960135E-1,6.954302107E-1,1.121063232E-1,1.178048270E0,5.010256086E0,6.714298793E0
4.895324710E-1,-1.001052201E0,5.983790159E-1,-6.500445604E-1,1.141906738E0,8.871765137E-1,9.947858538E-2,8.072902134E-1,5.078661237E0,6.690699986E0
5.092163090E-1,-1.286845237E0,7.485280037E-1,-6.220182180E-1,1.280240740E0,1.317086356E0,5.458504813E-2,9.721461705E-1,5.119362967E0,6.686255319E0
5.289306640E-1,-9.838025570E-1,9.411289692E-1,4.315519333E-2,1.401984079E0,1.678213937E0,-1.831054688E-2,9.157082694E-1,5.348863874E0,6.810753959E0
5.486145020E-1,-4.263484478E-1,1.023425102E0,6.841728687E-1,1.431352888E0,1.817456927E0,-1.030731201E-1,2.593579973E-1,5.730571202E0,6.828879220E0
5.683288570E-1,-8.273324370E-2,9.372445345E-1,1.073103666E0,1.382045201E0,1.579751151E0,-1.497933524E-1,-6.223929269E-1,6.231983730E0,6.791599819E0
5.880126950E-1,1.407822520E-1,8.230699301E-1,1.304504395E0,1.316763742E0,1.112252372E0,-1.717093331E-1,-1.259251186E0,6.625318255E0,6.578861782E0
6.076965330E-1,4.451280683E-1,5.316910744E-1,1.205434322E0,1.215713501E0,6.535797119E-1,-2.376033238E-1,-1.626931327E0,6.983078003E0,6.653076172E0
6.274108890E-1,6.623454541E-1,1.029300690E-1,1.070081234E0,1.088339669E0,3.805694580E-1,-2.920815604E-1,-1.333469936E0,7.277566092E0,7.154495239E0
6.470947270E-1,4.470198900E-1,-1.109527349E-1,1.049684644E0,9.442225865E-1,2.009953090E-1,-3.453456334E-1,-9.644208636E-1,7.525536673E0,7.575188773E0
6.667785640E-1,9.597566724E-2,-3.042578697E-1,6.950960159E-1,8.043714251E-1,3.237915039E-2,-3.806501116E-1,-7.325265067E-1,7.574787685E0,7.838551113E0
6.864929200E-1,-2.266861498E-2,-6.685849428E-1,2.672122717E-1,6.667981829E-1,-1.421726772E-1,-3.884102958E-1,-5.936649867E-1,7.604548863E0,7.979123797E0
7.061767580E-1,-1.271675229E-1,-1.010480762E0,1.082769632E-1,5.735124860E-1,-2.811126709E-1,-3.549346924E-1,-4.052036830E-1,7.517327445E0,8.014014108E0
7.258911130E-1,-2.926733494E-1,-9.549173117E-1,1.613533497E-1,5.413992746E-1,-3.086569650E-1,-3.077588763E-1,-6.180681501E-2,7.166063581E0,7.678824289E0
7.456054690E-1,-1.031783074E-1,-6.946026087E-1,4.633554220E-1,5.100555420E-1,-2.751791818E-1,-2.700151716E-1,-1.004551479E-1,6.988207136E0,7.694213867E0
7.652893070E-1,1.763006896E-1,-5.657294989E-1,5.864627361E-1,4.787030901E-1,-3.301151821E-1,-2.248164586E-1,-3.672376360E-1,6.872948783E0,7.552614485E0
7.850036620E-1,-1.153051257E-1,-4.538396597E-1,4.022561312E-1,4.697243827E-1,-4.267490932E-1,-1.811436244E-1,-6.244419643E-1,6.724844796E0,7.147312709E0
8.046875000E-1,-5.978936106E-1,-3.833912611E-1,-2.146983147E-2,5.112718855E-1,-4.685995919E-1,-1.560341971E-1,-6.856689453E-1,6.421469552E0,6.739613124E0
8.244018550E-1,-7.411859334E-1,-2.250542641E-1,-1.370609999E-1,5.690961565E-1,-4.533822196E-1,-1.592254639E-1,-7.496250698E-1,6.144766671E0,6.561758859E0
8.440856930E-1,-4.479471594E-1,6.642341614E-3,-1.901984215E-3,5.975537981E-1,-3.850511823E-1,-1.837310791E-1,-8.727569580E-1,6.192306519E0,6.508401053E0
8.637695310E-1,-1.834662259E-1,2.217885256E-1,2.654232979E-1,5.881195068E-1,-2.340894427E-1,-2.178192139E-1,-8.129032680E-1,6.459775652E0,6.675308228E0
8.834838870E-1,-1.601887047E-1,3.191235065E-1,2.746057510E-1,5.620989118E-1,-3.777858189E-2,-2.543443952E-1,-4.612971715E-1,6.657806396E0,6.847348894E0
9.031677250E-1,1.552954316E-3,4.424821138E-1,4.536662102E-1,5.427682059E-1,7.057843890E-2,-3.057752337E-1,-4.859204973E-1,6.805908203E0,6.729008266E0
9.228820800E-1,1.432733536E-1,4.663273096E-1,5.825462341E-1,5.242026193E-1,1.426914760E-2,-3.451930455E-1,-9.137987409E-1,6.936902727E0,6.416734968E0
9.425659180E-1,2.468323261E-1,4.418544769E-1,4.826457500E-1,5.169001988E-1,-1.109749930E-1,-3.911525181E-1,-1.400163923E0,7.046351842E0,5.990570068E0
9.622497560E-1,4.194115698E-1,4.990019798E-1,3.941905499E-1,4.876817976E-1,-2.278507778E-1,-4.269125802E-1,-1.487040928E0,7.242335728E0,5.869831630E0
9.819641110E-1,6.516532302E-1,5.138918161E-1,6.167840958E-1,4.584612165E-1,-2.980041504E-1,-4.620688302E-1,-1.277716500E0,7.486888341E0,5.923191616E0
1.001647949E0,6.771340370E-1,4.771264791E-1,6.601964235E-1,4.144810268E-1,-3.640529088E-1,-4.833744594E-1,-1.047535488E0,7.733489990E0,6.116777693E0
1.021362305E0,4.028233588E-1,3.154029846E-1,5.180982351E-1,3.992658343E-1,-4.448612758E-1,-4.906768799E-1,-1.028039115E0,7.871324812E0,6.118488857E0
1.041076660E0,3.435679078E-1,2.756056786E-1,5.825144053E-1,3.714141846E-1,-4.526192801E-1,-5.034593855E-1,-1.014700753E0,8.001641410E0,6.142429897E0
1.060760498E0,6.340677738E-1,2.517269850E-1,8.414760828E-1,3.453935896E-1,-3.701389858E-1,-5.296391078E-1,-7.899845668E-1,8.132975987E0,6.333964757E0
1.080474854E0,5.247027874E-1,1.302127838E-1,7.671964169E-1,3.149566650E-1,-3.712049212E-1,-5.325251988E-1,-8.286350795E-1,8.150081090E0,6.308312552E0
1.100158691E0,2.759914845E-1,1.452801228E-1,5.986243486E-1,2.976096017E-1,-4.288787842E-1,-4.905264718E-1,-6.778019496E-1,8.175051008E0,6.159530640E0
1.119873047E0,-1.444071531E-4,2.031204700E-1,6.039941311E-1,3.145010812E-1,-4.246172224E-1,-4.355882917E-1,-5.673261370E-1,8.257478986E0,6.081205096E0
1.139556885E0,-1.071419418E-1,7.350564003E-2,5.397609472E-1,3.009578160E-1,-3.608551025E-1,-3.620845250E-1,-3.658708845E-1,8.299889701E0,6.261114938E0
1.159240723E0,-1.101045907E-1,-4.985642433E-2,3.467959166E-1,2.994341169E-1,-3.101806641E-1,-3.002995082E-1,-2.964412144E-1,8.312203544E0,6.325755528E0
1.178955078E0,1.097440720E-2,-8.775997162E-2,2.455614805E-1,2.991289411E-1,-3.384878976E-1,-2.502354213E-1,-5.081525530E-1,8.209594727E0,6.162950788E0
1.198638916E0,2.466652542E-1,-1.229002476E-1,3.135317564E-1,2.899998256E-1,-3.369598389E-1,-2.054901123E-1,-7.229483468E-1,8.135373797E0,6.101383754E0
1.218353271E0,2.809707224E-1,-1.924521923E-1,3.062001467E-1,2.575836182E-1,-2.254115513E-1,-1.720123291E-1,-4.958430699E-1,8.213701521E0,6.278215681E0
1.238037109E0,2.316167057E-1,-2.726547718E-1,2.370008230E-1,2.411477225E-1,-1.021466936E-1,-1.542053223E-1,-3.330361503E-1,8.136060442E0,6.392796108E0
1.257720947E0,2.166400552E-1,-2.806138992E-1,1.641714573E-1,2.260829381E-1,-5.695234026E-2,-1.333574568E-1,-5.126015799E-1,8.077913557E0,6.261797224E0
1.277435303E0,2.591898888E-1,-2.508814335E-1,2.242529392E-1,2.026476179E-1,-7.947431292E-2,-1.173836844E-1,-7.314976283E-1,8.127166748E0,6.097625732E0
1.297119141E0,1.757245958E-1,-2.218084335E-1,3.498721123E-1,1.496887207E-1,-1.281694685E-1,-1.208801270E-1,-9.910975865E-1,8.210963658E0,6.092836652E0
1.316864014E0,2.659046650E-2,-1.789579391E-1,3.310095072E-1,1.051003592E-1,-1.860024588E-1,-1.268157959E-1,-1.107044765E0,8.115539551E0,6.042212350E0
1.336547852E0,-1.348529011E-1,-1.769268513E-1,2.036623955E-1,8.485848563E-2,-2.213069371E-1,-1.362522670E-1,-1.124492100E0,7.984540667E0,5.874278477E0
1.356231689E0,-1.838317066E-1,-1.481189728E-1,1.710020304E-1,6.751142229E-2,-2.453504290E-1,-1.190512521E-1,-1.085501535E0,7.968806676E0,5.728914533E0
1.375946045E0,-1.638557315E-1,-7.329177856E-2,2.270983458E-1,6.279209682E-2,-2.289167132E-1,-9.394400460E-2,-8.874642508E-1,7.929471697E0,5.735754830E0
1.395629883E0,-1.522314101E-1,-7.579326630E-4,3.250783682E-1,5.335780552E-2,-2.041081020E-1,-7.446507045E-2,-7.000340053E-1,7.893561227E0,5.808266776E0
1.415344238E0,-2.657255977E-1,8.280754089E-3,2.097373009E-1,6.218392508E-2,-2.038072859E-1,-4.585484096E-2,-7.037963867E-1,7.814895630E0,5.739177159E0
1.435028076E0,-2.902964801E-1,9.583234787E-3,1.129026413E-1,6.522696359E-2,-2.152186802E-1,-1.405116490E-2,-7.386823382E-1,7.763248989E0,5.698133196E0
1.454711914E0,-3.021263182E-1,6.726598740E-2,1.772152185E-1,7.709612165E-2,-2.178061349E-1,2.795628139E-2,-7.308153425E-1,7.753328596E0,5.632468087E0
1.474426270E0,-3.421788067E-1,1.546204090E-1,1.384495497E-1,7.755388532E-2,-1.631753104E-1,4.591151646E-2,-6.531720843E-1,7.780689784E0,5.645459856E0
1.494110107E0,-3.019938022E-1,8.801054955E-2,3.985273838E-2,6.781441825E-2,-9.758213588E-2,4.469299316E-2,-6.846400670E-1,7.827205113E0,5.767562866E0
1.513824463E0,-1.988612413E-1,1.324715614E-1,7.823204994E-2,4.072570801E-2,-8.936636789E-2,4.652186802E-2,-7.711726597E-1,7.853884016E0,5.827418736E0
1.533508301E0,-2.315604687E-1,2.087827921E-1,1.305088997E-1,2.535792759E-2,-1.118883405E-1,4.210553850E-2,-9.045671735E-1,7.873380389E0,5.725836618E0
1.553192139E0,-4.964768440E-1,3.311787844E-1,2.223526239E-1,1.668003627E-2,-1.365421840E-1,3.769138881E-2,-1.014698574E0,7.873722621E0,5.625279018E0
1.572906494E0,-1.020095423E0,5.907009840E-1,2.714997530E-1,4.965645926E-3,-1.479557582E-1,3.388977051E-2,-1.011278425E0,7.921266828E0,5.608518328E0
1.592590332E0,-1.417596072E0,6.143672466E-1,-1.743937731E-1,-1.421247210E-2,-1.229989188E-1,2.140808105E-2,-9.801526751E-1,7.985905239E0,5.690606253E0
1.612335205E0,-1.351133883E0,3.106503487E-1,-9.916659594E-1,-4.403904506E-2,-1.041259766E-1,1.626150949E-3,-9.476623535E-1,8.053970337E0,5.792190552E0
1.632019043E0,-1.097922593E0,1.483803988E-1,-1.405004859E0,-6.184387207E-2,-1.173684256E-1,-2.089582171E-2,-1.048902239E0,8.053288051E0,5.721391950E0
1.651702881E0,-7.092843950E-1,2.284229994E-1,-1.625814199E0,-6.945146833E-2,-1.219329834E-1,-4.433114188E-2,-1.088235038E0,8.041658674E0,5.617071969E0
1.671417236E0,-2.738214433E-1,4.537345171E-1,-1.887630701E0,-9.151567732E-2,-1.325879778E-1,-6.868198940E-2,-1.086181641E0,8.072780064E0,5.664956229E0
1.691101074E0,2.429234609E-1,5.984289646E-1,-2.374037623E0,-1.170828683E-1,-1.726074219E-1,-8.176967076E-2,-1.137830462E0,8.152132307E0,5.707024711E0
1.710815430E0,4.987942502E-1,6.377341747E-1,-2.713889837E0,-1.248452323E-1,-2.133919852E-1,-9.622628348E-2,-1.147064209E0,8.167866298E0,5.650251116E0
1.730499268E0,5.618969947E-1,6.289682388E-1,-3.082575083E0,-1.245422363E-1,-2.083718436E-1,-1.211809431E-1,-1.099522182E0,8.087831770E0,5.611600603E0
1.750183105E0,5.224166065E-1,5.783411264E-1,-3.580020666E0,-1.362566267E-1,-1.910226004E-1,-1.294010707E-1,-1.012645176E0,8.145292010E0,5.678639003E0
1.769897461E0,4.675826132E-1,5.827990770E-1,-3.811645269E0,-1.622794015E-1,-1.896514893E-1,-1.657714844E-1,-1.041035243E0,8.195567540E0,5.748068673E0
1.789581299E0,7.112738490E-1,6.684713364E-1,-4.174232006E0,-2.433973040E-1,-2.348523821E-1,-2.509918213E-1,-1.251039777E0,8.275606428E0,5.845890590E0
1.809265137E0,5.974673927E-1,5.194848776E-1,-4.114165306E0,-4.024244036E-1,-3.958609445E-1,-3.937377930E-1,-1.702521188E0,8.480481829E0,5.971755981E0
1.828979492E0,2.627642155E-1,3.481296301E-1,-4.364501476E0,-5.967581613E-1,-7.349134173E-1,-5.555071150E-1,-2.208378383E0,8.596082415E0,5.883514404E0
1.848663330E0,3.573943377E-1,-1.313774586E-1,-5.068219781E0,-7.640032087E-1,-1.167412894E0,-7.110355922E-1,-2.334932600E0,8.376844134E0,5.279148647E0
1.868377686E0,1.274625719E0,-6.948205233E-1,-4.643489838E0,-9.419032506E-1,-1.595498221E0,-8.982173375E-1,-2.192306519E0,8.027633667E0,4.733956473E0
1.888092041E0,1.595219195E0,-8.198163509E-1,-3.102261066E0,-1.167282104E0,-2.040167672E0,-1.080834525E0,-1.912179129E0,7.833365304E0,4.629294259E0
1.907806396E0,9.749825001E-1,-6.211665869E-1,-1.432987928E0,-1.426446097E0,-2.519692557E0,-1.225559780E0,-1.501063756E0,7.799501692E0,4.584145682E0
1.927459717E0,3.285868168E-1,-2.308998108E-1,-7.652937174E-1,-1.671914237E0,-2.978822981E0,-1.328582764E0,-1.018118722E0,7.842252459E0,4.558493478E0
1.947174072E0,-3.729182482E-1,7.029747963E-2,-8.508827686E-1,-1.848290580E0,-3.334008353E0,-1.386260986E0,-3.987056187E-1,7.785476685E0,4.340275356E0
1.966888428E0,-1.974188089E-1,4.280879498E-1,-4.436345100E-1,-1.983426775E0,-3.597741263E0,-1.439978463E0,1.324615479E-1,7.627458845E0,4.205180577E0
1.986572266E0,9.729063511E-2,8.222830296E-1,-1.570112705E-1,-2.070471627E0,-3.866030012E0,-1.481831142E0,4.368700300E-1,7.405824934E0,4.196969169E0
2.006286621E0,1.880621910E-2,1.037964821E0,-4.000291824E-1,-2.119173322E0,-4.155781337E0,-1.539051601E0,8.271244594E-1,7.115103585E0,3.948656355E0
2.025970459E0,-1.290541887E-1,1.167890906E0,-7.259596586E-1,-2.139870780E0,-4.400946481E0,-1.646488735E0,1.047051566E0,6.826086862E0,3.751303537E0
2.045654297E0,3.665792942E-1,1.407619357E0,-2.425262928E-1,-2.096043178E0,-4.554497855E0,-1.732779367E0,1.490661621E0,6.612317766E0,3.687007359E0
2.065368652E0,1.524068475E0,1.796569705E0,2.862784863E-1,-2.030447824E0,-4.611107962E0,-1.790607997E0,2.134704590E0,6.448146275E0,3.456819807E0
2.085052490E0,1.656382382E0,1.855641007E0,2.729588151E-1,-1.937776838E0,-4.624496460E0,-1.891041347E0,2.469892229E0,6.091755458E0,3.566268921E0
2.104736328E0,1.515371978E0,1.495067120E0,-2.314323187E-1,-1.791070121E0,-4.712001256E0,-2.000922067E0,2.615251814E0,5.768535069E0,3.385332380E0
2.124450684E0,1.421266854E0,1.278468847E0,-6.119588017E-1,-1.449273246E0,-4.740766253E0,-2.014920916E0,2.923080444E0,5.279778617E0,2.698540824E0
2.144165039E0,1.653272450E0,1.196733236E0,-6.122141480E-1,-1.012363979E0,-4.493475778E0,-1.947200230E0,4.030907767E0,4.643600464E0,2.353777204E0
2.163848877E0,2.618433237E0,1.205211878E0,-3.803331256E-1,-5.631256104E-1,-3.908948626E0,-1.924065726E0,5.135319301E0,4.278998239E0,3.207820347E0
2.183593750E0,3.331700742E0,1.491404533E0,3.131419718E-1,-1.700461251E-1,-3.232506888E0,-1.996656145E0,5.415786743E0,4.332353864E0,4.430919102E0
2.203277588E0,3.460056901E0,1.803175926E0,4.149246514E-1,1.189488002E-1,-2.803353446E0,-2.105619158E0,4.978670393E0,4.679513114E0,5.549693516E0
2.222961426E0,3.485508025E0,2.034366369E0,-1.216323674E-1,3.733934675E-1,-2.704286848E0,-2.231471470E0,4.600045340E0,5.178536551E0,5.783981323E0
2.242675781E0,3.296720088E0,2.740061760E0,-1.841471791E-1,6.089673723E-1,-2.730004447E0,-2.397960118E0,4.045275007E0,5.637878418E0,5.419721331E0
2.262359619E0,3.693307996E0,3.194868088E0,3.354058415E-1,7.803235735E-1,-2.640522548E0,-2.557745797E0,4.129071917E0,6.187521798E0,5.492231097E0
2.282043457E0,5.100411177E0,2.266544819E0,1.001230001E0,9.267207554E-1,-2.540233067E0,-2.697601318E0,4.530611311E0,6.800436837E0,5.545246669E0
2.301757813E0,5.217659593E0,6.370356083E-1,1.046527833E0,9.956599644E-1,-2.703674316E0,-2.744319371E0,4.526506696E0,7.364443098E0,5.223735264E0
2.321441650E0,4.423097014E0,1.385157108E-1,7.662362009E-1,1.039487566E0,-3.018535069E0,-2.736254011E0,4.251517160E0,7.811471122E0,4.518476214E0
2.341125488E0,3.423147559E0,6.385257244E-1,5.423241407E-1,1.029748099E0,-3.252593994E0,-2.740513393E0,4.182083130E0,8.216777257E0,4.103591919E0
2.360839844E0,2.679117858E0,7.419447899E-1,-1.761766374E-1,9.547249930E-1,-3.360336304E0,-2.683295114E0,4.788504464E0,8.777363368E0,4.328650338E0
2.380523682E0,2.110198677E0,4.324235916E-1,-6.065716296E-1,8.635689872E-1,-3.367488316E0,-2.589250837E0,5.683251517E0,9.403272356E0,4.357380458E0
2.400238037E0,1.751809508E0,3.305904865E-1,-6.698901355E-1,7.661677769E-1,-3.521798270E0,-2.474655151E0,5.652810233E0,9.712812151E0,4.015352522E0
2.419921875E0,1.396990627E0,2.945978642E-1,-8.589389622E-1,6.865822928E-1,-3.767421177E0,-2.336628505E0,5.427753993E0,9.619781494E0,3.211584909E0
2.439605713E0,1.226973534E0,-1.666069031E-3,-1.096290588E0,6.002960205E-1,-4.055953979E0,-2.200881958E0,5.186283657E0,9.602336339E0,2.509057181E0
2.459350586E0,1.236686647E0,-3.748593330E-1,-1.108448386E0,5.161394392E-1,-4.223807199E0,-2.082336426E0,5.123694284E0,9.672450474E0,1.971047538E0
2.479034424E0,1.184672654E0,-4.430911541E-1,-1.017604053E0,4.338117327E-1,-4.192005702E0,-1.954958235E0,5.552250453E0,9.805158343E0,1.821578979E0
2.498718262E0,1.156102180E0,-1.004266739E-1,-1.057583749E0,3.228716169E-1,-3.941059658E0,-1.853607178E0,6.324214390E0,1.001755851E1,1.748724801E0
2.518432617E0,9.395610690E-1,1.852889061E-1,-1.164387494E0,1.909310477E-1,-3.543409075E0,-1.829408918E0,6.667953491E0,1.047211347E1,2.184470040E0
2.538116455E0,5.112071037E-1,4.456739426E-1,-1.284999788E0,1.600363595E-1,-3.123997280E0,-1.812218802E0,6.593048096E0,1.082577297E1,1.871856689E0
2.557830811E0,2.958834171E-3,8.738358021E-1,-1.348453939E0,1.668831961E-1,-2.825424194E0,-1.810235160E0,6.436741420E0,1.113154602E1,1.190194266E0
2.577514648E0,-5.225867629E-1,1.228699207E0,-1.513314873E0,1.107286726E-1,-2.652696882E0,-1.803237915E0,6.067350115E0,1.183099583E1,9.124668666E-1
2.597198486E0,-1.065298200E0,1.404466629E0,-1.784114182E0,3.441946847E-3,-2.311811175E0,-1.703255790E0,5.939431327E0,1.249453081E1,1.101266044E0
2.616912842E0,-1.519294143E0,1.451305628E0,-2.013643771E0,-1.309313093E-1,-1.651345389E0,-1.458849226E0,6.834178380E0,1.236592756E1,1.622859410E0
2.636596680E0,-1.822038174E0,1.628759146E0,-2.056640089E0,-1.361062186E-1,-8.545292446E-1,-1.166512626E0,7.503186907E0,1.101183646E1,1.970700945E0
2.656311035E0,-2.010772347E0,1.947637796E0,-1.960883826E0,-8.543178013E-2,-3.237239293E-1,-8.731079102E-1,7.021610805E0,9.848595755E0,1.766172137E0
2.675994873E0,-2.192015409E0,2.125355959E0,-1.948799282E0,-1.196703230E-1,-7.795279367E-2,-5.895952497E-1,6.104289464E0,9.789766584E0,1.594469343E0
2.695709229E0,-2.377858162E0,1.912829876E0,-1.873536915E0,-1.855664934E-1,-7.095118931E-2,-3.206917899E-1,5.162342616E0,1.028399876E1,1.372150966E0
2.715393066E0,-2.518041492E0,1.616870642E0,-1.626054317E0,-2.517634801E-1,-2.523520333E-1,-8.359418597E-2,4.472126552E0,1.038626753E1,7.554757254E-1
2.735076904E0,-2.668972850E0,1.186187506E0,-1.551742792E0,-3.173544747E-1,-5.137983050E-1,1.200234549E-1,3.951215472E0,1.012495422E1,3.354644775E-1
2.754821777E0,-2.853556037E0,5.617942810E-1,-1.568156451E0,-4.380340576E-1,-8.767504011E-1,3.078133719E-1,3.645444598E0,9.956680298E0,2.889469692E-1
2.774505615E0,-2.996844172E0,1.563873291E-1,-1.452331960E0,-5.620618548E-1,-1.281699044E0,4.771902902E-1,3.405681065E0,9.950520107E0,2.646636963E-1
2.794219971E0,-2.979126453E0,-1.746249199E-2,-1.215527266E0,-6.565660749E-1,-1.639325823E0,6.225237165E-1,3.250058855E0,9.801395961E0,2.661350795E-2
2.813903809E0,-2.899166703E0,-2.053318024E-1,-1.176796407E0,-7.326551165E-1,-1.876423427E0,7.529405866E-1,3.310939244E0,9.423795428E0,-5.342102051E-2
2.833618164E0,-2.779672146E0,-4.447026253E-1,-1.084065735E0,-7.974853516E-1,-1.988885062E0,8.826010568E-1,3.495638166E0,9.095450265E0,2.592686244E-2
2.853302002E0,-2.514608383E0,-3.076593876E-1,-7.031321824E-1,-8.595733643E-1,-1.981425694E0,1.010432652E0,3.625265939E0,9.032858712E0,1.387961251E-1
2.872985840E0,-2.119521260E0,7.869768143E-2,-2.238290310E-1,-9.180101667E-1,-1.858771188E0,1.132631574E0,3.815434047E0,9.280147008E0,1.429050991E-1
2.892700195E0,-1.723913789E0,4.171249866E-1,4.634484649E-2,-9.467729841E-1,-1.672653198E0,1.217856271E0,3.886230469E0,9.476470947E0,1.162261963E-1
2.912384033E0,-1.325874567E0,7.910695076E-1,2.935001552E-1,-9.686867850E-1,-1.518188477E0,1.273398263E0,3.774050031E0,9.594811576E0,3.105817522E-2
2.932067871E0,-9.320212603E-1,1.339390039E0,5.117923617E-1,-1.008558001E0,-1.438753401E0,1.312510899E0,3.584902082E0,9.844493321E0,4.986790248E-2
2.951782227E0,-4.783756733E-1,1.703051329E0,6.822328568E-1,-1.047973633E0,-1.429622105E0,1.345990862E0,3.362243652E0,1.011708941E1,2.627127511E-2
2.971466064E0,7.807195187E-3,1.655229330E0,8.425965309E-1,-1.077344622E0,-1.486386980E0,1.373685564E0,3.139923096E0,1.026894924E1,-1.190926688E-1
2.991180420E0,4.814284444E-1,1.359459400E0,9.690210819E-1,-1.071866717E0,-1.553041731E0,1.372469221E0,2.916235788E0,1.026039777E1,-3.044738770E-1
3.010833740E0,5.642517805E-1,4.451003075E-1,2.392911911E-2,-1.038234166E0,-1.589257377E0,1.329707554E0,2.769165039E0,1.019404602E1,-4.529113770E-1
3.030578613E0,1.046077967E0,1.386797428E-1,4.834063053E-1,-9.881657192E-1,-1.555167062E0,1.236574445E0,2.732907976E0,1.022209167E1,-4.611227853E-1
3.050292969E0,2.860197484E0,1.854658127E-2,6.384259164E-1,-9.406847273E-1,-1.451989310E0,1.092912946E0,2.795159476E0,1.036916242E1,-3.814304897E-1
3.069976807E0,4.264356554E0,-2.344927788E-1,1.199455649E0,-8.863547189E-1,-1.318982806E0,9.040592739E-1,2.817389352E0,1.052034215E1,-3.400421143E-1
3.089691162E0,4.345998049E0,-3.728365898E-1,1.447724462E0,-8.198525565E-1,-1.179890224E0,6.878095354E-1,2.818416051E0,1.032811846E1,-3.414110456E-1
3.109375000E0,3.473526359E0,-6.593263149E-1,9.158801436E-1,-7.641557966E-1,-1.060276576E0,4.589298793E-1,2.791401454E0,9.998746599E0,-1.440604074E-1
3.129058838E0,2.670679510E0,-8.428564072E-1,2.147139609E-1,-7.212415423E-1,-9.828186035E-1,2.420741490E-1,2.759589059E0,9.679635184E0,1.985822405E-3
3.148773193E0,1.917522490E0,-9.783306122E-1,-7.214803100E-1,-6.589987619E-1,-9.479697091E-1,4.362705776E-2,2.668265206E0,9.186767578E0,6.423296247E-2
3.168457031E0,1.583480954E0,-1.176905632E0,-1.319481164E0,-5.768192836E-1,-9.286411830E-1,-1.612047468E-1,2.531454904E0,8.624474662E0,2.592686244E-2
3.188171387E0,1.554405749E0,-1.357160568E0,-1.679296106E0,-5.098615374E-1,-8.982042585E-1,-3.674098424E-1,2.393275670E0,8.262608119E0,1.216953823E-1
3.207855225E0,1.645238519E0,-1.372206688E0,-1.852913350E0,-4.678606306E-1,-8.930293492E-1,-5.714852469E-1,2.352918352E0,8.121353149E0,3.077610561E-1
3.227569580E0,1.772441179E0,-1.383538008E0,-1.770216286E0,-4.217485700E-1,-9.100755964E-1,-7.755584717E-1,2.357020787E0,8.013955253E0,3.830086844E-1
3.247253418E0,2.086792827E0,-1.456829786E0,-1.588069469E0,-3.582894461E-1,-9.412732806E-1,-9.904392787E-1,2.331026350E0,7.831996373E0,3.481205532E-1
3.266937256E0,2.340946019E0,-1.476210594E0,-1.407776237E0,-3.009163993E-1,-9.625810896E-1,-1.203340803E0,2.364545550E0,7.827547346E0,5.297350202E-1
3.286651611E0,2.626104414E0,-1.366840839E0,-1.076886833E0,-2.727639335E-1,-9.685145787E-1,-1.408782959E0,2.506827218E0,8.165815081E0,9.011819022E-1
3.306335449E0,2.818673193E0,-1.276861906E0,-8.111273348E-1,-2.534375872E-1,-9.671412877E-1,-1.612705776E0,2.664162772E0,8.616607666E0,1.238765172E0
3.326049805E0,2.910816073E0,-1.249110937E0,-8.110279143E-1,-2.280229841E-1,-9.595336914E-1,-1.809626988E0,2.793108259E0,9.020887102E0,1.417984009E0
3.345764160E0,2.934305191E0,-1.157606363E0,-7.501083314E-1,-2.129625593E-1,-9.829690116E-1,-1.987221854E0,2.892296927E0,9.476470947E0,1.603367397E0
3.365447998E0,2.981810808E0,-8.150362968E-1,-4.471010268E-1,-2.219369071E-1,-1.043842861E0,-2.127986363E0,2.956257411E0,1.008527919E1,1.746673584E0
3.385131836E0,2.907135487E0,-3.826651573E-1,-1.456417739E-1,-2.484152658E-1,-1.168023246E0,-2.199970790E0,3.025344849E0,1.064860317E1,1.919740949E0
3.404846191E0,2.689708769E0,-2.931716442E-1,1.038140953E-1,-2.841775077E-1,-1.334200178E0,-2.202100481E0,3.135818481E0,1.085005624E1,1.976174491E0
3.424530029E0,2.432657003E0,-4.871582985E-1,1.964956522E-1,-3.497706822E-1,-1.534776960E0,-2.130270822E0,3.231589181E0,1.081140791E1,2.144795009E0
3.444244385E0,2.118037820E0,-6.405003071E-1,3.512298763E-1,-4.150565011E-1,-2.006081717E0,-1.903523036E0,3.328380040E0,1.051862880E1,1.974123274E0
3.463928223E0,1.968734324E0,-3.320875168E-1,7.410888374E-1,-6.501748221E-1,-3.067690168E0,-1.520636422E0,2.911108834E0,9.743593488E0,1.126573835E0
3.483612061E0,1.894603789E0,3.023335934E-1,1.173173457E0,-9.137529646E-1,-3.941515241E0,-1.077791486E0,3.366346087E0,9.642349243E0,1.699818202E0
3.503326416E0,1.746834338E0,9.867455959E-1,1.386670679E0,-1.073085240E0,-4.301267351E0,-7.111881801E-1,4.860671997E0,9.570528303E0,1.808240618E0
3.523040771E0,1.574035943E0,1.647588491E0,1.663208514E0,-1.189498901E0,-4.064021519E0,-4.836752755E-1,6.233915057E0,9.303056989E0,2.232356480E0
3.542724609E0,1.249024689E0,1.643882275E0,1.749635428E0,-1.200762068E0,-3.347858974E0,-4.199153355E-1,6.588603428E0,9.249021258E0,2.711881365E0
3.562408447E0,6.179380417E-1,7.005882263E-1,1.481234044E0,-1.163783482E0,-2.634281703E0,-4.486759731E-1,6.028017317E0,8.986683437E0,2.568228585E0
3.582092285E0,-2.471897602E-1,-2.996704578E-1,1.150764763E0,-1.110369001E0,-2.061778477E0,-4.753090995E-1,5.294366019E0,8.704853603E0,2.005249023E0
3.601837158E0,-1.077575147E0,-7.683074474E-1,9.669833779E-1,-1.015250070E0,-1.659415109E0,-5.396793910E-1,4.567210606E0,8.634390695E0,1.430980137E0
3.621520996E0,-1.872974038E0,-5.099568367E-1,5.986627042E-1,-9.396209717E-1,-1.509364537E0,-5.839647566E-1,3.943008423E0,8.442175729E0,7.633427211E-1
3.641235352E0,-2.516636491E0,6.237356663E-1,1.672499180E-1,-8.426818848E-1,-1.521386283E0,-6.204855783E-1,3.664256505E0,8.280393328E0,3.450404576E-1
3.660919189E0,-2.843706965E0,2.091044426E0,-7.178559899E-2,-7.483324323E-1,-1.595347813E0,-6.287057059E-1,3.591064453E0,8.099121094E0,1.155395508E-1
3.680633545E0,-2.857221961E0,3.176246166E0,-5.597326159E-1,-6.576320103E-1,-1.735959734E0,-6.227700370E-1,3.634837559E0,8.060810634E0,5.063738142E-3
3.700317383E0,-2.734051824E0,3.167822838E0,-1.273505270E0,-5.686056955E-1,-1.844918387E0,-6.035962786E-1,3.662547520E0,8.056021554E0,7.209995815E-2
3.720001221E0,-2.544106603E0,2.605740070E0,-1.876733005E0,-4.725799561E-1,-1.894836426E0,-5.701163156E-1,3.879050119E0,7.993776594E0,2.509809222E-1
3.739715576E0,-2.517387748E0,2.188005686E0,-2.251125872E0,-3.643755232E-1,-1.853899275E0,-5.431801932E-1,4.115731376E0,7.951361520E0,4.059208461E-1
3.759399414E0,-2.518739223E0,1.548030615E0,-2.551144123E0,-2.630266462E-1,-1.732306344E0,-5.203530448E-1,4.329840524E0,7.955466134E0,5.960911342E-1
3.779083252E0,-2.424702764E0,1.153157711E0,-2.324185669E0,-1.832842146E-1,-1.540710449E0,-4.858093262E-1,4.560368129E0,8.071415492E0,8.854479109E-1
3.798797607E0,-2.085342526E0,1.068469286E0,-1.982864290E0,-1.027788435E-1,-1.325225830E0,-4.374128069E-1,4.692393712E0,8.149741037E0,1.076982771E0
3.818481445E0,-1.691143036E0,1.055961370E0,-1.755979091E0,-9.185791016E-3,-1.110802787E0,-3.821716309E-1,4.766272409E0,8.166841779E0,1.035254342E0
3.838195801E0,-1.379864454E0,9.875242710E-1,-1.864966005E0,8.120727539E-2,-9.163164411E-1,-3.162798200E-1,4.765583583E0,8.238324847E0,1.041410174E0
3.857879639E0,-1.276438475E0,1.047480106E0,-1.799006939E0,1.410151890E-1,-7.490670340E-1,-2.246638707E-1,4.805265154E0,8.486639840E0,1.182669503E0
3.877563477E0,-1.181182861E0,1.222882032E0,-1.822736114E0,1.632319859E-1,-6.460418701E-1,-1.055079869E-1,4.802185059E0,8.898097447E0,1.492887224E0
3.897308350E0,-1.354133487E0,1.329574347E0,-2.287984967E0,1.680995396E-1,-6.291482108E-1,4.119655064E-2,4.671872820E0,9.147436959E0,1.622859410E0
3.916992188E0,-1.564984918E0,1.388402700E0,-2.801630497E0,1.677965437E-1,-6.810433524E-1,2.151380266E-1,4.488200596E0,9.128280640E0,1.774721418E0
3.936706543E0,-1.641639233E0,1.537144423E0,-3.176651239E0,1.903206961E-1,-7.504403251E-1,3.902958461E-1,4.317186628E0,8.923407418E0,1.793875558E0
3.956390381E0,-1.638794899E0,1.824886084E0,-3.470494330E0,2.151271275E-1,-7.992880685E-1,5.494777134E-1,4.122916085E0,8.795828683E0,1.888617379E0
3.976074219E0,-1.520410776E0,2.022609234E0,-3.583949685E0,2.180153983E-1,-7.623073033E-1,6.865866525E-1,4.115731376E0,9.055433001E0,2.169418335E0
3.995788574E0,-1.420247674E0,1.965268373E0,-3.668467939E0,1.942749023E-1,-6.585191999E-1,8.036150251E-1,4.185509818E0,9.584553310E0,2.507688250E0
4.015472412E0,-1.263972521E0,1.924811602E0,-3.554679871E0,1.612548828E-1,-5.182102748E-1,8.915797642E-1,4.231336321E0,1.014273943E1,2.693067278E0
4.035156250E0,-1.099365830E0,2.114817142E0,-3.446525037E0,8.090209961E-2,-3.384857178E-1,9.720829555E-1,4.253226144E0,1.074574062E1,2.833644322E0
4.054870605E0,-9.276556969E-1,2.127390862E0,-3.449634135E0,-5.910382952E-2,-1.768711635E-1,1.085303170E0,4.217657907E0,1.110145133E1,3.038517543E0
4.074554443E0,-7.282307148E-1,1.840223074E0,-3.532696247E0,-1.975904192E-1,-8.114842006E-2,1.242813110E0,4.028172084E0,1.070982361E1,2.986528669E0
4.094268799E0,-5.584256649E-1,1.480266333E0,-3.551188827E0,-2.981763567E-1,-5.999101911E-2,1.411427089E0,3.604742868E0,9.686815534E0,2.730691092E0
4.113952637E0,-4.615070820E-1,1.315952778E0,-3.493308842E0,-3.802076067E-1,-8.069065639E-2,1.537887573E0,3.049288068E0,8.781123570E0,2.484091622E0
4.133636475E0,-4.894777536E-1,1.455608606E0,-3.507959962E0,-4.657309396E-1,-1.706281390E-1,1.602565220E0,2.562238421E0,8.258847918E0,2.416364397E0
4.153350830E0,-6.087327003E-1,1.468369722E0,-3.928556263E0,-5.581032889E-1,-3.520289830E-1,1.578981672E0,2.110076904E0,8.273208618E0,2.131114415E0
4.173065186E0,-6.483203769E-1,1.228890419E0,-4.670671225E0,-6.547372001E-1,-5.755811419E-1,1.413558960E0,1.697932652E0,8.979843140E0,1.846888951E0
4.192779541E0,-3.146629930E-1,1.297613382E0,-4.846853137E0,-7.913970947E-1,-7.857426235E-1,1.115892683E0,1.573091779E0,1.012050738E1,1.613627842E0
4.212463379E0,4.351165891E-1,1.575072050E0,-4.791169167E0,-9.706660679E-1,-1.030757359E0,7.675519671E-1,1.594637190E0,1.123723493E1,1.437138149E0
4.232177734E0,9.385522008E-1,1.939463615E0,-4.869352341E0,-1.142325265E0,-1.332831247E0,4.333626883E-1,1.788912092E0,1.179952567E1,9.603511265E-1
4.251861572E0,1.125856102E0,2.003420591E0,-5.234767079E0,-1.252049037E0,-1.695327759E0,1.471099854E-1,2.012597220E0,1.149820382E1,3.320465088E-1
4.271575928E0,1.223562777E0,1.284987450E0,-5.473562479E0,-1.333160400E0,-2.042907715E0,-7.218279157E-2,2.253727504E0,1.096258545E1,-9.583391462E-2
4.291259766E0,1.260185957E0,1.405208111E-1,-5.191783786E0,-1.383529663E0,-2.383793422E0,-2.179718018E-1,2.320081438E0,1.058396258E1,-3.995579311E-1
4.310943604E0,1.419690490E0,-7.915620804E-1,-4.529282808E0,-1.373637608E0,-2.663502284E0,-3.283015660E-1,2.335130964E0,1.000422015E1,-7.248208182E-1
4.330657959E0,1.823110580E0,-1.145319700E0,-3.702389002E0,-1.365267072E0,-2.803355626E0,-4.419839042E-1,2.412427630E0,9.555136544E0,-6.553955078E-1
4.350341797E0,2.173854411E0,-1.022073030E0,-3.013873339E0,-1.375771659E0,-2.828770229E0,-5.372467041E-1,2.626538958E0,9.426193237E0,-3.841639927E-1
4.370025635E0,2.363339782E0,-8.479349613E-1,-2.800644398E0,-1.407272339E0,-2.744158064E0,-6.043570382E-1,3.031160627E0,9.389936175E0,-1.512429374E-1
4.389739990E0,2.263350070E0,-8.660717010E-1,-2.603117526E0,-1.430099487E0,-2.605826242E0,-6.571655273E-1,3.286311558E0,9.402250017E0,-1.529541016E-1
4.409423828E0,1.949129522E0,-6.870999336E-1,-2.497807801E0,-1.458557129E0,-2.373750959E0,-7.124067034E-1,3.523339408E0,9.342736380E0,-2.377777100E-1
4.429138184E0,1.612995028E0,-4.010274410E-1,-2.200689495E0,-1.513796125E0,-2.141675677E0,-7.735835484E-1,3.553438459E0,9.450814383E0,-1.809975760E-1
4.448822021E0,1.567985237E0,-4.088065624E-1,-1.490867555E0,-1.590042114E0,-1.970016479E0,-8.120814732E-1,3.594822475E0,9.633806501E0,-1.615055629E-1
4.468566895E0,1.583568215E0,-4.764947891E-1,-9.040466547E-1,-1.649544852E0,-1.948098319E0,-8.443450928E-1,3.404998779E0,9.753513881E0,-4.792458670E-1
4.488250732E0,1.501730144E0,-5.369806290E-1,-7.063680887E-1,-1.701437814E0,-2.068171910E0,-8.400835310E-1,3.108801705E0,9.836628505E0,-8.831830706E-1
4.507934570E0,1.565503240E0,-4.427695274E-1,-4.599246383E-1,-1.742828369E0,-2.275894165E0,-7.994537354E-1,2.960359846E0,9.955651420E0,-1.183144706E0
4.527648926E0,2.047209740E0,-2.622816563E-1,7.770121098E-3,-1.771440778E0,-2.527452741E0,-7.280774798E-1,2.850224086E0,1.014377049E1,-1.396567208E0
4.547332764E0,2.848210633E0,4.527835846E-1,9.663661718E-1,-1.796399798E0,-2.750697545E0,-6.494009835E-1,2.882034302E0,1.043483625E1,-1.556642805E0
4.567016602E0,3.617888391E0,4.901287556E-1,1.877521396E0,-1.798531669E0,-2.920992170E0,-5.862513951E-1,2.965144566E0,1.053539167E1,-1.608971732E0
4.586730957E0,3.616632402E0,-1.008467674E0,1.620039046E0,-1.777677264E0,-2.992058890E0,-5.661621094E-1,3.064335414E0,1.045911516E1,-1.646935599E0
4.606414795E0,3.394173145E0,-1.590142012E0,1.559470654E0,-1.760328020E0,-2.964362008E0,-5.865522112E-1,3.215857370E0,1.040268816E1,-1.522777012E0
4.626129150E0,3.635439932E0,-1.116465330E0,1.849249810E0,-1.755613055E0,-2.825570243E0,-6.547306606E-1,3.381055559E0,1.056206621E1,-1.401014056E0
4.645812988E0,3.664174795E0,-9.646103382E-1,1.897755593E0,-1.746178763E0,-2.607345581E0,-7.658211844E-1,3.528470721E0,1.064894104E1,-1.371941703E0
4.665496826E0,3.317286372E0,-1.102457762E0,1.029387653E0,-1.719092233E0,-2.335248675E0,-8.971514021E-1,3.676225935E0,1.048990086E1,-1.376728603E0
4.685211182E0,3.098627508E0,-1.367455959E0,6.184596419E-1,-1.679068429E0,-2.053407942E0,-1.036398751E0,3.808931623E0,1.015642439E1,-1.407516479E0
4.704895020E0,3.290056765E0,-1.654694557E0,7.743869424E-1,-1.642085484E0,-1.794396537E0,-1.172751290E0,3.859555926E0,9.904691424E0,-1.314141410E0
4.724609375E0,3.428629935E0,-1.796831846E0,9.705405533E-1,-1.630065918E0,-1.608888899E0,-1.289474487E0,3.834586007E0,9.852700370E0,-1.159201486E0
4.744323730E0,3.390312612E0,-1.793246031E0,9.222321212E-1,-1.647415161E0,-1.561865670E0,-1.384281703E0,3.667676653E0,1.005005101E1,-1.084298270E0
4.764038086E0,3.320518374E0,-1.661814928E0,9.952845275E-1,-1.643458775E0,-1.668698992E0,-1.457480294E0,3.427568708E0,1.009246608E1,-1.341844831E0
4.783721924E0,3.155222476E0,-1.615035295E0,7.695671320E-1,-1.590953282E0,-1.857400077E0,-1.532202584E0,3.222351074E0,9.888275146E0,-1.905511039E0
4.803405762E0,2.898640692E0,-1.761066675E0,5.142911971E-1,-1.544078282E0,-1.987361363E0,-1.597488403E0,3.246294294E0,9.906398228E0,-2.109699794E0
4.823120117E0,2.701624870E0,-1.903740644E0,4.963755012E-1,-1.495383126E0,-1.989950997E0,-1.636596680E0,3.689904349E0,1.013248117E1,-1.950999669E0
4.842803955E0,2.544084013E0,-1.915857315E0,6.142686605E-1,-1.422491891E0,-1.920096261E0,-1.663990566E0,4.165671212E0,1.046561759E1,-1.870278495E0
4.862487793E0,2.330768764E0,-1.709226847E0,6.820509136E-1,-1.317029681E0,-1.919945853E0,-1.658052717E0,4.338736398E0,1.077822658E1,-1.960920061E0
4.882202148E0,2.135440409E0,-1.423524380E0,7.098852396E-1,-1.176258632E0,-2.035297939E0,-1.597486223E0,4.298374721E0,1.073513576E1,-2.226673671E0
4.901885986E0,2.167789698E0,-1.042840004E0,7.343226671E-1,-1.011147635E0,-2.203615461E0,-1.492178781E0,4.258701869E0,1.003568595E1,-2.347749983E0
4.921600342E0,2.325667381E0,-6.856317520E-1,8.856199235E-1,-8.306579590E-1,-2.319876535E0,-1.385349819E0,4.176616124E0,9.051326207E0,-2.068313599E0
4.941284180E0,2.570542395E0,-1.515109539E-1,1.698227167E0,-6.384582520E-1,-2.268744332E0,-1.283540998E0,4.197821481E0,8.201385498E0,-1.527566092E0
4.960968018E0,2.286886156E0,1.053383112E0,2.207317889E0,-4.754704067E-1,-2.069235665E0,-1.184470040E0,4.461521694E0,7.769742693E0,-8.212781634E-1
4.980682373E0,1.870807111E0,1.630079508E0,2.079510450E0,-3.421609061E-1,-1.782832554E0,-1.106704712E0,4.738909040E0,7.799159459E0,-1.768929618E-1
5.000366211E0,1.136742651E0,1.166265249E0,1.845116168E0,-2.328948975E-1,-1.475272042E0,-1.031223842E0,4.937630790E0,8.017033168E0,1.740264893E-1
5.020050049E0,-1.497519016E-1,4.056441784E-1,1.032291263E0,-1.259111677E-1,-1.207739694E0,-9.581756592E-1,4.922236851E0,8.118273054E0,2.697950091E-1
5.039794922E0,-1.354549289E0,-2.919838428E-1,7.187148929E-2,-2.912684849E-2,-1.078693935E0,-8.693019322E-1,4.723861694E0,8.136056083E0,3.983982631E-1
5.059478760E0,-2.014550328E0,-3.415253162E-1,-6.929613948E-1,6.492396763E-2,-1.084777832E0,-7.830178397E-1,4.343865531E0,8.362139021E0,4.158412388E-1
5.079193115E0,-1.890525281E0,5.630135536E-2,-6.637680233E-1,1.276223319E-1,-1.149608067E0,-7.142333984E-1,3.977894374E0,8.651840210E0,6.142163958E-1
5.098876953E0,-1.225070953E0,2.830743790E-1,-3.727213144E-1,1.547088623E-1,-1.239547729E0,-6.446881975E-1,3.857158116E0,8.706562587E0,1.149152483E0
5.118591309E0,-6.826050282E-1,6.663053036E-1,-2.224194109E-1,1.626216343E-1,-1.354136876E0,-5.885314941E-1,3.861949376E0,8.669621059E0,1.666981288E0
5.138275146E0,-1.895691156E-1,1.255748987E0,-3.909972608E-1,1.764744350E-1,-1.527016776E0,-5.433306013E-1,3.785330636E0,8.630972726E0,1.847231184E0
5.157958984E0,5.197899342E-1,1.777455091E0,-6.302780956E-1,1.927555629E-1,-1.719526018E0,-5.331333705E-1,3.705296108E0,8.664149693E0,1.931714739E0
5.177673340E0,8.004223108E-1,1.619852066E0,-7.546203583E-1,2.117767334E-1,-1.865918841E0,-5.176173619E-1,3.892044067E0,8.813273839E0,2.082203456E0
5.197357178E0,3.408792019E-1,1.049421787E0,-1.301588237E0,2.277592250E-1,-1.904578073E0,-5.291791643E-1,4.388331822E0,9.040041242E0,2.475878034E0
5.217071533E0,-3.050817251E-1,5.948746204E-1,-1.650605261E0,1.157531738E-1,-1.867747716E0,-4.931139265E-1,5.132928031E0,9.776770455E0,3.275885446E0
5.236755371E0,-8.875966072E-1,4.709982872E-2,-1.892728120E0,-6.295340402E-3,-1.790442330E0,-3.594992501E-1,5.826219831E0,9.866725377E0,4.013979231E0
5.256439209E0,-1.250199080E0,-1.863906384E-1,-2.100604475E0,-9.700230190E-4,-1.767310006E0,-2.172110421E-1,5.918908255E0,8.564961025E0,3.803292411E0
5.276153564E0,-1.357648849E0,-2.621150017E-2,-2.234624743E0,8.159092494E-3,-1.655003139E0,-1.179874965E-1,5.706850324E0,7.706473214E0,3.491363525E0
5.295837402E0,-1.115350723E0,6.903553009E-2,-2.469814360E0,-4.768807547E-2,-1.484407697E0,-8.268083845E-3,5.821430751E0,7.976671491E0,3.696581159E0
5.315551758E0,-6.279054880E-1,2.413692474E-1,-2.444058895E0,-1.353454590E-1,-1.318834577E0,1.025238037E-1,6.114547729E0,8.314596994E0,3.874777658E0
5.335266113E0,-3.603074551E-1,5.539774895E-1,-2.392427802E0,-1.845005580E-1,-1.331159319E0,1.944427490E-1,6.066661290E0,8.306389945E0,3.556350708E0
5.354949951E0,-5.174748898E-1,7.737524509E-1,-2.462232530E0,-1.733899798E-1,-1.450925555E0,2.718963623E-1,5.790991647E0,8.134689331E0,2.744373866E0
5.374664307E0,-7.355823517E-1,7.264492512E-1,-2.559678316E0,-1.484331403E-1,-1.595042637E0,3.543766567E-1,5.750974383E0,7.868253435E0,2.427998134E0
5.394348145E0,-9.614950418E-1,5.953421593E-1,-2.590570629E0,-1.119101388E-1,-1.614063808E0,4.175349644E-1,6.046829224E0,7.584705898E0,2.532315935E0
5.414031982E0,-1.105399728E0,6.294653416E-1,-2.332675338E0,-7.249450684E-2,-1.522755214E0,4.484318324E-1,6.321476528E0,7.413349697E0,2.672888620E0
5.433746338E0,-1.127419829E0,7.569286823E-1,-2.071445614E0,-1.451546805E-2,-1.334965297E0,4.473637172E-1,6.436741420E0,7.352471488E0,2.614401681E0
5.453430176E0,-1.202013612E0,7.572288513E-1,-1.958050936E0,2.475193569E-2,-1.096956526E0,4.262128557E-1,6.520196097E0,7.390777588E0,2.554207938E0
5.473144531E0,-1.222915411E0,6.955220699E-1,-1.865602165E0,7.177080427E-2,-8.714207241E-1,3.928833008E-1,6.527378627E0,7.490308489E0,2.461515154E0
5.492828369E0,-1.089821577E0,7.562153339E-1,-1.580440909E0,1.460396903E-1,-6.626325335E-1,3.517935617E-1,6.444950649E0,7.420194353E0,2.146503993E0
5.512512207E0,-8.407756090E-1,7.079329491E-1,-1.080318198E0,2.355194092E-1,-4.536873954E-1,3.131408691E-1,6.309504918E0,7.262172154E0,1.916663034E0
5.532226563E0,-6.562846899E-1,5.278446674E-1,-6.138131917E-1,3.315451486E-1,-2.508305141E-1,2.909218924E-1,6.217498779E0,7.106894357E0,1.846546718E0
5.551910400E0,-5.915043354E-1,3.584990501E-1,-1.522192433E-1,4.185921805E-1,-5.117143903E-2,2.728140695E-1,6.152171544E0,7.074741908E0,1.896486555E0
5.571624756E0,-6.833817959E-1,6.084506512E-1,5.923200548E-1,5.127890451E-1,1.542750767E-1,2.507455008E-1,6.009547642E0,7.240626744E0,1.900244577E0
5.591308594E0,-7.445751429E-1,5.085227489E-1,1.779239029E0,6.132354736E-1,3.840659005E-1,2.082868304E-1,5.875470843E0,7.433530535E0,1.859887259E0
5.611022949E0,-1.338002324E0,1.070468426E-1,3.789272249E0,7.078879220E-1,6.467306955E-1,1.670466832E-1,5.872048514E0,7.766669137E0,1.823632377E0
5.630737305E0,-3.793739557E0,1.406860352E-1,6.060479641E0,8.113664900E-1,1.011967250E0,1.259569441E-1,5.959267753E0,8.073811122E0,1.785321917E0
5.650421143E0,-5.788531184E0,-1.854669094E0,7.932159662E0,8.961334229E-1,1.587055751E0,7.695661272E-2,6.200057983E0,8.385740008E0,1.988490513E0
5.670135498E0,-8.817983150E0,-3.891323328E0,1.032525826E1,8.859383719E-1,2.207650321E0,2.749633789E-2,6.343026297E0,8.996261597E0,2.815856934E0
5.689819336E0,-9.420245171E0,-5.226192951E0,1.116576171E1,8.425685338E-1,2.753064837E0,-1.024300711E-2,6.014336722E0,1.012290301E1,3.168147496E0
5.709503174E0,-5.641641498E0,-1.517033100E0,1.351213408E1,7.349744524E-1,3.043579102E0,5.291094099E-2,5.616895403E0,1.065817697E1,3.068956648E0
5.729217529E0,-1.054521561E0,9.736779928E0,1.965937138E1,6.322544643E-1,3.040836879E0,1.671992711E-1,5.022792271E0,1.030862645E1,3.016625541E0
5.748901367E0,3.983720720E0,2.003345728E1,2.003525734E1,5.611833845E-1,2.662974766E0,3.397739955E-1,3.902648926E0,9.701182774E0,2.480664934E0
5.768615723E0,5.640883207E0,2.283485556E1,1.465794992E1,5.045732771E-1,2.002203805E0,5.316685268E-1,2.801315308E0,8.972660610E0,1.742228917E0
5.788299561E0,7.396688104E0,2.404655933E1,8.149765730E0,4.898093087E-1,1.157300677E0,6.832427979E-1,1.892205375E0,8.592324393E0,1.008917672E0
5.807983398E0,1.009516597E1,2.662929010E1,3.502863526E0,4.479631696E-1,3.565237863E-1,7.625296456E-1,1.634654454E0,8.738712856E0,5.304216657E-1
5.827697754E0,1.228388071E1,2.429137707E1,2.107612252E0,3.730882917E-1,-1.989353725E-1,7.686179025E-1,2.038933890E0,9.066373553E0,6.456843785E-1
5.847381592E0,1.007518291E1,1.670000982E1,1.769592881E0,3.126743862E-1,-4.218793597E-1,7.060699463E-1,2.744197301E0,9.183694022E0,8.597935268E-1
5.867095947E0,7.563565016E0,1.034450603E1,-2.093434334E-3,2.449537005E-1,-4.351218087E-1,5.823473249E-1,3.330095564E0,9.488098145E0,9.056265695E-1
5.886779785E0,6.039842367E0,8.234310389E0,1.310051203E0,1.804308210E-1,-3.011997768E-1,4.333648682E-1,3.856133597E0,9.939917428E0,7.315346854E-1
5.906494141E0,4.247955799E0,7.736622214E0,-1.967793345E0,9.611947196E-2,1.366315569E-2,3.251626151E-1,4.494360788E0,1.048374285E1,3.966870989E-1
5.926208496E0,2.246214151E0,7.797105908E0,-3.645689130E0,2.687726702E-2,4.860294887E-1,2.586604527E-1,5.090170724E0,1.055694144E1,3.392268590E-1
5.945892334E0,-5.612790585E-2,9.629723787E0,-7.087761760E0,1.089913504E-2,8.109348842E-1,2.201559884E-1,4.939337594E0,1.015197536E1,1.053728376E-2
5.965606689E0,-1.394757390E0,1.345076442E1,-8.101570010E0,-1.831708636E-2,8.879394531E-1,2.387215751E-1,4.506670271E0,9.635168893E0,-3.947666713E-1
5.985290527E0,-1.589851141E0,1.702485824E1,-7.836773992E0,-4.799325126E-2,7.868935721E-1,2.977665492E-1,3.921800886E0,9.253470285E0,-5.917772566E-1
6.005004883E0,-4.730734825E-1,1.808989382E1,-7.502651811E0,-5.971200126E-2,5.634918213E-1,3.525543213E-1,3.454934256E0,8.728107997E0,-7.460327148E-1
6.024688721E0,8.031222820E-1,2.000730705E1,-7.144457102E0,-1.023210798E-1,2.245853969E-1,4.297114781E-1,3.166942051E0,8.498949323E0,-8.831852504E-1
6.044403076E0,1.442783713E0,2.216158009E1,-6.135959744E0,-1.318468366E-1,-8.358546666E-2,4.995596749E-1,3.104354858E0,8.602587019E0,-9.574061802E-1
6.064086914E0,1.658421516E0,2.410289764E1,-4.906680584E0,-1.310838972E-1,-3.330078125E-1,5.456717355E-1,3.279133388E0,8.661414010E0,-1.162623814E0
6.083770752E0,1.952228069E0,2.616692591E1,-5.589762688E0,-1.204332624E-1,-4.176156180E-1,5.680411203E-1,3.775072370E0,8.698353359E0,-1.271730695E0
6.103485107E0,1.825693250E0,2.762827492E1,-5.947030187E0,-1.272822789E-1,-4.232504708E-1,5.583016532E-1,4.234760829E0,8.913487026E0,-1.195800781E0
6.123168945E0,2.139390469E0,2.826976395E1,-6.007777572E0,-1.361062186E-1,-3.934217181E-1,5.316707066E-1,4.423217773E0,9.119391305E0,-1.212557111E0
6.142852783E0,2.593125403E0,2.719727278E1,-6.027012348E0,-1.161717006E-1,-3.664855957E-1,4.832763672E-1,4.304190499E0,9.226446969E0,-1.339453561E0
6.162567139E0,1.308617353E0,2.528590822E1,-6.662114263E0,-9.227861677E-2,-3.923579625E-1,4.364057268E-1,4.199530465E0,9.109133039E0,-1.428721837E0
6.182281494E0,-4.831515640E0,2.049009323E1,-7.574861407E0,-5.195181710E-2,-4.587097168E-1,3.636627197E-1,4.065795898E0,8.954533168E0,-1.499518258E0
6.201995850E0,-2.191278768E1,1.306607914E1,-9.291682124E0,-1.558140346E-2,-5.122746059E-1,2.566833496E-1,3.984392439E0,8.927514212E0,-1.339111328E0
6.221679688E0,-3.549617863E1,1.724379539E0,-3.093968582E1,1.957484654E-2,-5.316031320E-1,1.270250593E-1,3.989523751E0,9.039012364E0,-1.129444667E0
6.241363525E0,-3.636206245E1,-1.111013246E1,-3.931261349E1,8.044651576E-2,-5.230778285E-1,-3.033229283E-2,3.990208217E0,9.062957764E0,-1.035387312E0
6.261077881E0,-3.630789852E1,-1.333057237E1,-3.947823334E1,1.684047154E-1,-4.917275565E-1,-2.117309570E-1,3.916329520E0,9.017466954E0,-1.054883684E0
6.280761719E0,-2.517150688E1,7.476869106E0,-3.429987240E1,2.808685303E-1,-3.961639404E-1,-3.949563163E-1,3.919407436E0,9.019178118E0,-9.857918876E-1
6.300476074E0,-9.564050555E0,1.572777963E1,-6.576680303E0,3.895241874E-1,-2.311989920E-1,-5.559626988E-1,4.025436401E0,9.124178205E0,-7.621067592E-1
6.320159912E0,-9.774042606E0,2.521849632E1,-1.029251587E1,4.968109131E-1,5.732945033E-4,-7.000797817E-1,4.174218314E0,9.107764108E0,-4.019492013E-1
6.339874268E0,-1.129623771E1,3.969786167E1,-1.734547186E1,5.993804932E-1,2.541046143E-1,-8.119332450E-1,4.230311802E0,9.020200457E0,-7.941763742E-2
6.359558105E0,-4.056883007E0,4.152632141E1,-1.084004664E1,6.884046282E-1,5.090070452E-1,-8.954794747E-1,4.197477068E0,8.883387974E0,2.465384347E-1
6.379241943E0,4.974849224E-1,3.514491844E1,-1.495062685E1,6.658826556E-1,6.866040911E-1,-9.355010986E-1,3.961135864E0,9.165224348E0,7.872794015E-1
6.398956299E0,-1.764502168E0,3.517158794E1,-1.683238745E1,5.057918004E-1,7.657361712E-1,-8.966936384E-1,3.826036726E0,9.336580549E0,1.577026367E0
6.418640137E0,1.470494926E0,2.980010796E1,-1.226304221E1,1.384233747E-1,5.637948172E-1,-8.139125279E-1,3.460065569E0,9.086556571E0,2.847322736E0
6.438323975E0,1.607292533E0,2.813428020E1,-1.461575842E1,-3.525063651E-1,3.370448521E-1,-8.951764788E-1,2.263990130E0,8.998312814E0,5.006550380E0
6.458038330E0,3.876688600E0,2.743992233E1,-1.020250201E1,-8.350742885E-1,-4.918997628E-2,-9.971378871E-1,-9.874616350E-2,8.817722866E0,6.851113456E0
6.477752686E0,3.924689651E0,2.916143513E1,-9.800537109E0,-1.367250715E0,-4.985787528E-1,-1.316103254E0,-2.053096226E0,6.978631156E0,8.761683873E0
6.497467041E0,3.809452415E0,2.762003422E1,-1.029608226E1,-1.862291609E0,-1.133632115E0,-1.877498082E0,-4.979156494E0,5.242492676E0,1.100060381E1
6.517150879E0,3.744633198E0,2.313276768E1,-1.121753740E1,-2.001233782E0,-2.388966152E0,-2.184448242E0,-6.512128557E0,3.929787772E0,1.260403660E1
6.536834717E0,4.681452870E0,2.109004307E1,-1.071938658E1,-2.065148490E0,-3.087323870E0,-2.408608573E0,-3.817967006E0,5.317055838E0,1.302096994E1
6.556549072E0,5.980400681E0,1.972919226E1,-4.835487187E0,-2.722872053E0,-3.109998431E0,-2.899699620E0,-5.061013358E-1,1.335370745E1,1.890420750E1
6.576232910E0,8.924161792E0,1.773806810E1,-1.983768821E0,-3.706416539E0,-2.954319545E0,-2.762734549E0,3.699482509E0,2.461911011E1,2.271133205E1
6.595916748E0,1.201109982E1,1.890861559E1,-2.714642823E0,-4.701067243E0,-3.654046195E0,-2.068180629E0,6.949443272E0,3.083309065E1,2.148207964E1
6.615631104E0,1.855606174E1,2.972560549E1,1.304375947E1,-5.088825771E0,-4.782614572E0,-1.246405465E0,7.728240967E0,3.227713449E1,1.653189523E1
6.635314941E0,2.713145018E1,3.086384249E1,2.556892395E1,-5.271900722E0,-5.936451503E0,-1.694248744E-1,9.509185791E0,3.332203456E1,1.161180987E1
6.655029297E0,3.540988255E1,3.028016758E1,2.547035789E1,-5.285899571E0,-6.440471104E0,1.270660400E0,1.224370684E1,3.550315421E1,8.151848929E0
6.674713135E0,3.667092609E1,2.982479477E1,3.291273165E1,-5.254401071E0,-5.785485404E0,2.701156616E0,1.528570993E1,3.389971706E1,7.145257132E0
6.694396973E0,3.701933575E1,2.706367636E1,3.748083878E1,-4.845186506E0,-4.325770787E0,3.433602469E0,1.517284066E1,2.712002563E1,7.288227626E0
6.714111328E0,3.692144489E1,1.519229984E1,2.625303793E1,-4.052171980E0,-3.399751936E0,3.809188843E0,1.321609497E1,2.008586121E1,6.301472255E0
6.733795166E0,2.996113539E1,9.256422758E0,2.014579582E1,-3.897402082E0,-1.930145264E0,4.250052316E0,1.276495797E1,1.549104527E1,6.794337681E0
6.753509521E0,2.411245632E1,7.561881781E0,1.545815969E1,-3.624849592E0,-6.916961670E-1,4.480913435E0,1.191912406E1,1.384657070E1,6.464276995E0
6.773223877E0,2.144326258E1,3.006257772E0,1.167341352E1,-3.723312378E0,-1.951381138E-2,4.744184222E0,1.090637425E1,1.259987749E1,4.007825579E0
6.792907715E0,1.964366245E1,2.129529119E0,1.039080954E1,-3.787222726E0,1.252092634E-1,4.982803345E0,9.480800084E0,1.181081935E1,2.749502999E0
6.812622070E0,1.569664097E1,6.956452608E0,3.496292174E0,-3.723310198E0,-2.123304095E-1,5.112152100E0,7.713193621E0,1.236456299E1,-2.104121617E-1
6.832305908E0,1.287106872E1,1.649644303E1,-1.710038781E-1,-3.663803101E0,-6.382816860E-1,5.240596226E0,6.643327985E0,1.454704503E1,-1.118499756E0
6.852020264E0,1.189940739E1,2.639448071E1,-2.603898048E0,-3.611304147E0,-1.288245065E0,5.451213292E0,6.392619542E0,1.689609855E1,-1.218715123E0
6.871704102E0,1.116696763E1,3.243925476E1,-4.025834262E0,-3.616322109E0,-1.877487183E0,5.956758772E0,7.071888515E0,1.750901358E1,-9.450945173E-1
6.891387939E0,9.813614845E0,3.743307400E1,-7.787809730E0,-3.320486886E0,-1.747371129E0,6.342082432E0,8.451974051E0,1.722376360E1,-1.070962088E0
6.911102295E0,7.134409666E0,3.970126915E1,-1.190884542E1,-2.817378453E0,-8.355058943E-1,6.579635620E0,9.419233050E0,1.807952009E1,-1.019313267E0
6.930786133E0,4.945736885E0,4.154596233E1,-1.294262362E1,-2.687111991E0,2.821066720E-1,6.663027082E0,9.450016567E0,1.880359759E1,-2.521427699E-1
6.950500488E0,5.638762712E0,4.325052357E1,-1.228919244E1,-2.639175415E0,9.482029506E-1,6.718117850E0,9.242401123E0,1.939564514E1,4.791150774E-1
6.970184326E0,7.707244396E0,4.470450020E1,-1.170560884E1,-2.479387556E0,1.225171770E0,6.607635498E0,8.819314139E0,2.028936332E1,-3.793792725E-1
6.989868164E0,8.855607986E0,4.588265419E1,-1.158417058E1,-2.458685739E0,1.461656843E0,6.521802630E0,7.869158064E0,2.077881295E1,-8.435145787E-1
7.009582520E0,8.176035881E0,4.681082916E1,-1.258056068E1,-2.569475446E0,1.803152902E0,6.554526193E0,7.118746076E0,2.097479466E1,-1.205716814E0
7.029266357E0,7.190417886E0,4.713140202E1,-1.439417028E1,-2.716788156E0,2.142364502E0,6.621943883E0,6.593045916E0,1.977769470E1,-1.476601737E0
7.049011230E0,9.692189731E-1,4.153934956E1,-1.819157171E1,-2.875965663E0,2.581255232E0,6.693466187E0,5.582696097E0,1.817357962E1,-1.531668527E0
7.068695068E0,-1.212174463E1,3.640374660E1,-2.562724733E1,-3.118850708E0,3.426156180E0,6.839102609E0,1.911697388E0,1.542434910E1,-3.636858259E0
7.088409424E0,-2.652863932E1,2.113433695E1,-3.293494511E1,-4.046691895E0,6.140149798E0,6.414062500E0,-6.148208618E0,1.030999320E1,-3.538696289E0
7.108093262E0,-3.434387875E1,1.062055826E1,-3.876899719E1,-5.834204538E0,9.184064593E0,4.770509992E0,-2.409309605E1,3.198872158E0,-6.761293684E0
7.127777100E0,-3.376341915E1,2.325688601E-1,-3.745518398E1,-5.804685320E0,6.903791155E0,1.806028094E0,-3.812722124E1,-6.899185181E0,-2.840111433E1
7.147491455E0,-3.336559010E1,4.273038745E0,-3.837202740E1,1.095796858E0,-2.028908866E0,-5.681370326E-1,-4.546544538E1,-1.738921029E1,-6.166923087E1
7.167175293E0,-2.428961897E1,2.125413036E1,-3.466615963E1,6.083666120E0,-6.452495030E0,-2.397652762E0,-4.606502424E1,-2.698687962E1,-7.203372628E1
7.186859131E0,-1.313772774E1,2.828458500E1,-1.952064133E1,8.881356376E0,-6.814531599E0,-4.104814802E0,-3.713328552E1,-1.019326346E1,-4.814404079E1
7.206573486E0,-6.456392348E0,4.405140781E1,-2.023093319E1,8.885617937E0,-4.896597726E0,-3.765149798E0,-1.865449306E1,3.357572283E0,-2.020200021E1
7.226257324E0,5.185120702E0,4.401827145E1,-1.619024897E1,6.479034424E0,-3.128566197E0,-3.400070190E0,-9.130017962E0,8.568038940E0,2.051075527E0
7.245941162E0,8.076801777E0,4.444353104E1,-1.799131703E1,4.767458235E0,-3.148801531E0,-5.543683733E0,-1.075088937E1,1.997059631E1,-8.444758824E0
7.265669145E0,8.944561005E0,4.144159317E1,-2.233637381E1,5.478142875E0,-1.268005371E0,-7.465573992E0,-1.076628331E1,3.279633658E1,-1.160168457E1
7.285352982E0,1.134250832E1,3.893529987E1,-2.015042114E1,6.673976353E0,8.946315220E-1,-6.393005371E0,-3.101760864E0,3.621867589E1,-4.259007045E0
7.305067338E0,1.030071473E1,3.817059422E1,-2.265034485E1,5.872743879E0,-5.720825195E-1,-5.498940604E0,3.008241926E0,2.955287824E1,-8.270664760E0
7.324781693E0,9.414178848E0,3.820060730E1,-1.781765985E1,4.146253313E0,-3.610061646E0,-5.599380493E0,1.078857422E0,3.128012085E1,-7.610547747E0
7.344496049E0,9.596035004E0,3.811561489E1,-1.650184965E1,3.513334002E0,-4.371272496E0,-4.893720354E0,3.413888114E0,2.860272217E1,-7.690926688E0
7.364179887E0,1.080376172E1,3.840873909E1,-1.531452131E1,4.902136666E0,-4.082129342E0,-4.878045218E0,6.023910522E0,2.612711661E1,-4.099622454E0
7.383863725E0,1.141775465E1,3.689305687E1,-1.551756620E1,5.342091152E0,-3.691029140E0,-4.890677316E0,7.191938128E0,2.629094805E1,-7.986441476E0
7.403578080E0,1.198523283E1,3.532481766E1,-1.372333717E1,4.661084856E0,-3.034212385E0,-4.842588152E0,9.605296544E0,2.733858163E1,-3.490471976E0
7.423261918E0,1.370613694E1,3.245947313E1,-1.151728654E1,3.916307722E0,-2.087040492E0,-5.168862479E0,9.748260498E0,3.011551339E1,-3.438483102E0
7.442976273E0,1.793788791E1,2.915998125E1,-3.870305866E0,3.937159947E0,-1.538582938E0,-5.359237671E0,9.847106934E0,2.986378043E1,-4.234041486E0
7.462660111E0,2.429326057E1,2.734192944E1,2.649466038E0,4.514382499E0,-2.262350900E0,-5.148468018E0,9.697300502E0,2.682417079E1,-5.446188790E0
7.482343949E0,3.121793365E1,3.118666458E1,7.672969580E0,4.676300049E0,-3.680369786E0,-4.797999791E0,1.014227949E1,2.553300912E1,-6.580017090E0
7.502058305E0,3.606855011E1,3.054737329E1,1.678892374E1,4.208193098E0,-3.494406564E0,-4.498203823E0,1.113895307E1,2.540543474E1,-3.105002267E0
7.521742143E0,3.707814884E1,3.008138132E1,2.421185112E1,3.841284616E0,-2.812332153E0,-4.218797956E0,1.259257507E1,2.484074838E1,7.544512068E-1
7.541456498E0,3.776563549E1,2.673438311E1,3.004251719E1,4.599145072E0,-3.426537650E0,-3.994940622E0,1.544235883E1,2.355027553E1,7.520533970E-1
7.561140336E0,3.796491623E1,1.788359618E1,2.610077047E1,5.062685285E0,-3.601085118E0,-4.279824393E0,1.771719360E1,2.770694624E1,1.740286691E-1
7.580824174E0,3.750579643E1,1.344645667E1,1.510767484E1,3.697629656E0,-3.092801775E0,-4.842282976E0,2.387336949E1,3.913720703E1,1.546989877E1
7.600538529E0,3.480417252E1,1.140792894E1,4.562550783E0,2.238824027E0,-2.394444057E0,-5.891568865E0,3.077482823E1,4.023204694E1,2.573657881E1
7.620252885E0,2.943970060E1,6.030695677E0,7.959818900E0,2.462225778E0,-1.195260184E0,-5.722037179E0,4.049768066E1,4.072969491E1,2.552075631E1
7.639936723E0,2.663207626E1,5.163834572E0,7.698675990E0,1.048921858E0,3.900037493E-1,-3.406764439E0,5.371606663E1,4.319709342E1,2.961415536E1
7.659651078E0,2.124791479E1,8.929714203E0,-1.115554571E-1,-1.665825980E0,1.563620431E0,-1.133643014E0,5.640099008E1,4.092636108E1,3.602446202E1
7.679365434E0,1.518446708E1,1.653638053E1,-4.786376834E0,-2.171221052E0,8.380257743E-1,8.912789481E-1,5.001702663E1,3.257504490E1,3.616674587E1
7.699049272E0,1.371957612E1,2.532811594E1,-4.481023252E0,-2.172437395E0,-8.909040179E-1,3.009172712E0,4.106271144E1,2.104114859E1,2.162675912E1
7.718733109E0,1.267301822E1,3.457875538E1,-6.164896965E0,-3.330529349E0,-2.017190116E0,4.174874442E0,3.121638707E1,1.917537798E1,2.057775443E1
7.738447465E0,1.143947172E1,3.759363747E1,-8.991709471E0,-3.253526960E0,-1.928318569E0,4.793794904E0,2.766133990E1,1.674902998E1,1.655104719E1
7.758131303E0,8.953924656E0,3.940227890E1,-1.168956256E1,-3.597760882E0,-7.198508126E-1,5.347579956E0,2.615230669E1,1.222569493E1,1.338420541E1
7.777815141E0,7.150377512E0,4.121352768E1,-1.261058927E1,-3.941689628E0,9.552001953E-3,6.004697527E0,2.592177909E1,1.021422468E1,1.374367632E1
7.797529496E0,6.827222109E0,4.287340260E1,-1.193448710E1,-3.935143607E0,-4.756011963E-1,6.780818394E0,2.341812788E1,1.242954581E1,8.100886754E0
7.817213334E0,7.377044201E0,4.432364845E1,-1.277879596E1,-3.851444789E0,-9.887542725E-1,7.419821603E0,2.113713728E1,1.868148804E1,4.765073504E0
7.836897172E0,7.721682787E0,4.556281948E1,-1.391358280E1,-3.597150530E0,-1.177610125E0,7.964021955E0,2.073388890E1,2.670583235E1,2.027478899E0
7.856611527E0,8.767987013E0,4.657771492E1,-1.368116593E1,-3.436907087E0,-6.885027204E-1,8.440802438E0,2.071268136E1,3.291775513E1,7.226431710E-1
7.876325883E0,8.534727335E0,4.729796982E1,-1.619236183E1,-3.253374372E0,2.630855015E-1,8.890343802E0,2.071199690E1,3.626895360E1,-6.434238979E-1
7.896040238E0,2.419482648E0,4.480443573E1,-1.814653635E1,-2.750414167E0,1.191691807E0,9.313254220E0,1.971259199E1,3.968137469E1,-4.195733207E0
7.915724076E0,-9.920717955E0,4.141708279E1,-2.803546619E1,-2.250505720E0,2.196232387E0,9.590983800E0,1.739226205E1,4.270969718E1,-7.745995658E0
7.935407914E0,-2.708585548E1,3.018850470E1,-2.680833912E1,-2.160413470E0,3.062752860E0,9.505002703E0,1.486843654E1,4.357982091E1,-8.689651489E0
7.955122270E0,-3.431826305E1,1.636352062E1,-3.509809113E1,-2.261611938E0,3.692323957E0,9.093200684E0,1.430545480E1,4.378538295E1,-7.977887835E0
7.974806107E0,-3.366128063E1,6.606801867E0,-3.753541660E1,-2.288702829E0,4.533575875E0,8.669381278E0,1.478361075E1,4.522292655E1,-6.962064471E0
7.994520463E0,-3.316292095E1,1.210378766E0,-3.785883999E1,-2.597172328E0,5.843702044E0,8.382672991E0,1.559319414E1,4.496640451E1,-6.348805019E0
8.014204301E0,-2.776948643E1,1.777444172E1,-3.354227161E1,-3.276962280E0,6.994186401E0,8.034938267E0,1.426235962E1,4.363317653E1,-6.324523926E0
8.033888139E0,-1.976175594E1,2.291494894E1,-1.772386360E1,-3.998602731E0,6.890247890E0,7.768011911E0,1.197008405E1,4.160905239E1,-7.380022321E0
8.053602494E0,-1.263298392E1,3.865536594E1,-2.333319998E1,-4.686002459E0,5.619537354E0,7.832384382E0,9.306359427E0,3.974704415E1,-9.081614903E0
8.073316850E0,5.416191220E-1,4.598709965E1,-2.047757483E1,-5.612481253E0,5.205147879E0,8.317692348E0,2.309478760E0,3.314657375E1,-1.311686925E1
8.093000688E0,4.989804626E0,4.426665020E1,-6.629601479E0,-6.803292411E0,6.723761422E0,8.565135411E0,-1.073037284E1,2.890268380E1,-2.022697013E1
8.112684525E0,6.069972038E0,4.343958378E1,-2.005979156E1,-8.322056362E0,9.046040126E0,7.737121582E0,-2.437321472E1,1.836887687E1,-2.788738796E1
8.132368363E0,1.235172224E1,3.942640591E1,-1.957204247E1,-6.530737741E0,7.546297346E0,4.236509051E0,-4.136418152E1,4.853264945E0,-4.303207833E1
8.152082719E0,1.093934965E1,3.586583328E1,-1.749722099E1,5.920758929E-1,-7.359793527E-1,1.508366176E0,-5.368782043E1,-6.975163051E-1,-7.547556196E1
8.171766557E0,8.863871098E0,3.227109575E1,-1.204327059E1,7.524206979E0,-6.612130301E0,1.297629220E-1,-5.432364982E1,-1.046825954E1,-7.853295898E1
8.191511430E0,7.901237726E0,3.161077356E1,-1.152687144E1,1.020593480E1,-8.573279245E0,-2.541617257E0,-4.394273812E1,5.748269217E-1,-6.291319057E1
8.211195268E0,7.186063409E0,3.280990887E1,-1.341089153E1,8.427400861E0,-7.024847848E0,-3.936963763E0,-2.903848703E1,1.400801086E1,-3.326579067E1
8.230879106E0,6.747538328E0,3.075876999E1,-1.573511052E1,6.488926479E0,-4.330184937E0,-4.226106916E0,-1.854025487E1,1.979205758E1,-1.647491019E1
8.250593461E0,8.511822701E0,2.786828184E1,-1.215395784E1,6.676716396E0,-4.218484061E0,-5.835109166E0,-1.208206831E1,3.589443534E1,-1.508319310E1
8.270277299E0,1.060536027E1,2.564424276E1,-1.006403494E1,6.379660470E0,-4.962799072E0,-6.280541556E0,-1.490116664E0,3.923913356E1,-1.298553031E1
8.289991654E0,1.187595630E1,2.291980076E1,-9.842786789E0,5.436137608E0,-5.185588292E0,-6.099142892E0,6.349182129E0,3.780021885E1,-8.894866943E0
8.309675492E0,1.186353898E1,2.097891378E1,-1.004940295E1,4.049774170E0,-5.483864920E0,-5.829020909E0,7.278130668E0,3.804990060E1,-1.401914106E1
8.329389848E0,1.520432711E1,2.098462391E1,-8.599805593E0,3.446225848E0,-5.935686384E0,-5.076644897E0,1.062659345E1,3.549186489E1,-1.466899545E1
8.349073686E0,2.396008301E1,2.856236887E1,3.673945367E-1,3.996507917E0,-7.089065552E0,-5.197320121E0,1.327970886E1,3.437719509E1,-1.270438712E1
8.368788041E0,3.421340466E1,3.007453775E1,1.101955938E1,4.657431466E0,-7.663700649E0,-6.193952288E0,1.327971322E1,3.484166827E1,-1.569747707E1
8.388471879E0,3.677333450E1,3.038179207E1,1.057257390E1,4.688629150E0,-4.684308733E0,-6.748197283E0,1.379240853E1,3.605108425E1,-1.229121399E1
8.408155717E0,3.482576752E1,2.706674051E1,1.302679658E1,4.452292306E0,-3.042277745E0,-7.095164708E0,1.457497297E1,3.670469666E1,-8.949251447E0
8.427870072E0,3.097267103E1,1.832322693E1,1.405076909E1,4.109732492E0,-3.413140433E0,-7.491446359E0,1.617054095E1,3.977714539E1,-9.250235421E0
8.447553910E0,2.930825758E1,1.554029465E1,1.902500153E1,4.034096854E0,-5.091847011E0,-7.591428484E0,1.710188293E1,3.978432792E1,-9.703425816E0
8.467268266E0,3.031730795E1,1.624629378E1,3.036401987E1,4.280785697E0,-6.063367571E0,-7.450657436E0,1.780475071E1,3.994884382E1,-1.029239764E1
8.486982621E0,2.720167589E1,2.064809990E1,1.672031176E1,4.305130005E0,-6.211288452E0,-7.250392369E0,1.834926060E1,3.900484140E1,-9.354551043E0
8.506666459E0,6.068208575E0,-7.451775074E-1,-1.155062532E1,4.033796038E0,-5.218008859E0,-6.857916696E0,2.023931667E1,3.711000279E1,-7.790115356E0
8.526380815E0,-7.998915553E0,8.167199373E0,-1.811042118E1,3.805827550E0,-4.086844308E0,-6.378548758E0,2.382275173E1,3.542311750E1,-1.264890398E0
8.546064652E0,-1.344603872E1,4.902399063E0,5.480084419E-1,3.691388811E0,-5.652330671E0,-6.372307914E0,2.889537484E1,3.428005763E1,3.975333078E0
8.565748490E0,-6.336028099E0,1.755655646E0,1.907659471E0,3.603731428E0,-4.582039969E0,-7.174453735E0,3.378228760E1,4.155877032E1,5.971758161E0
8.585462846E0,-2.812020898E0,-4.273616076E-1,-5.637441576E-2,1.602861677E0,-3.955363682E0,-6.678800310E0,4.565752520E1,4.468286351E1,1.389690726E1
8.605146684E0,-3.555073738E-1,-3.088669300E0,1.476099849E0,-4.807935442E-1,-2.780833653E0,-5.269910540E0,5.897612653E1,4.535734558E1,1.910771397E1
8.624861039E0,-3.769955039E0,-3.424449086E0,-1.769354194E0,-8.822479248E-1,-7.670244489E-1,-3.269799369E0,6.668511745E1,4.256570653E1,2.729041181E1
8.644544877E0,-4.816710711E0,-3.521294117E0,-2.183839113E0,-9.849679129E-1,3.923688616E-3,-6.842542376E-1,7.414921352E1,3.325260489E1,2.886921910E1
8.664228715E0,-4.645208240E0,-3.777129650E0,-4.339814782E0,-2.235438756E0,1.497576032E0,2.538478306E0,6.973259190E1,2.631557356E1,2.375075640E1
8.683943070E0,-4.237479687E0,-3.629444361E0,-4.453918993E0,-3.488342285E0,-1.494750977E-1,4.701420375E0,5.189920916E1,2.293564715E1,1.450469317E1
8.703626908E0,-4.309494138E0,-3.150871277E0,-5.391888976E0,-1.692459106E0,-3.359119960E0,5.811880929E0,3.863567243E1,2.138899231E1,6.049397060E0
8.723310746E0,-3.577627063E0,-2.693323016E0,-6.283873320E0,-1.949186053E0,-2.194024222E0,6.685856410E0,3.369130598E1,1.596475438E1,6.894550868E0
8.743025102E0,-1.719038129E0,-1.862050653E0,-7.396262288E0,-2.947184971E0,-7.521057129E-2,7.476285662E0,3.266795349E1,1.363451277E1,9.711499895E0
8.762769975E0,9.031587839E-1,-4.153556824E-1,-7.932357073E0,-2.522606986E0,9.346596854E-1,8.338082450E0,3.004493713E1,1.481143406E1,5.061277117E0
8.782453813E0,3.303851485E0,1.786915302E0,-7.792981267E0,-2.102587019E0,-8.148106166E-1,8.544134957E0,2.549903434E1,1.880599104E1,-1.485842024E0
8.802137650E0,3.887060225E0,3.751948595E0,-6.479281068E0,-1.864576067E0,-1.941554478E0,8.988194057E0,2.246250044E1,2.527375575E1,-3.187090193E0
8.821852006E0,3.656066418E0,4.404477358E0,-5.779107451E0,-1.518212455E0,-1.077928816E0,9.341864450E0,2.278024510E1,3.185336304E1,-2.888841902E0
8.841535844E0,3.511688888E0,5.209789276E0,-5.657307148E0,-1.179458618E0,6.401890346E-1,9.352214268E0,2.250456892E1,3.883895874E1,-4.671837943E0
8.861219682E0,2.875041008E0,5.115561604E0,-6.220513463E0,-7.515280587E-1,2.606818063E0,9.625684466E0,2.193885585E1,4.322753034E1,-7.159415109E0
8.880934037E0,2.174265802E0,2.406580687E0,-7.354412794E0,-5.469948905E-1,3.739953177E0,9.824125017E0,1.987436785E1,4.505259705E1,-9.185934884E0
8.900617875E0,1.848828733E0,3.029607534E-1,-3.306195796E0,-5.427311489E-1,3.987400600E0,9.624461583E0,1.777157375E1,4.636222403E1,-9.992098127E0
8.920332231E0,3.597520590E0,-1.111440301E0,1.325877607E0,-7.052634103E-1,4.363438198E0,9.339126587E0,1.656968471E1,4.821465411E1,-9.024836949E0
8.940016068E0,4.768029690E0,-1.460893989E0,5.235960364E0,-1.058779035E0,5.063164847E0,9.137791225E0,1.588870893E1,4.909161377E1,-8.297001430E0
8.959699906E0,3.547064185E0,-1.242896676E0,4.126628876E0,-1.719395229E0,5.702325003E0,9.034153530E0,1.533940778E1,5.025895909E1,-8.889051165E0
8.979414262E0,1.125411510E0,-1.362902880E0,1.618672371E0,-2.422467913E0,6.362025670E0,8.799037388E0,1.423089382E1,4.807100133E1,-9.124023438E0
8.999098100E0,-1.439126372E0,-5.670495033E-1,1.195441306E0,-2.741439819E0,6.814612252E0,8.608507429E0,1.374863107E1,4.743687657E1,-8.573019845E0
9.018812455E0,-2.995237947E0,2.368696928E-1,1.145258009E0,-3.123107910E0,6.670349121E0,8.975873675E0,1.204532950E1,4.456691415E1,-1.107838004E1
9.038526811E0,-4.089765668E0,1.311243892E0,9.273809791E-1,-4.461233956E0,5.866679600E0,9.610314505E0,5.456828526E0,3.819765581E1,-1.220228795E1
9.058210648E0,-4.321811676E0,1.748357654E0,-2.568336129E-1,-5.673198155E0,5.138953073E0,9.573789324E0,-6.305884225E0,3.357684762E1,-2.068733651E1
9.077894486E0,-3.598721981E0,1.790756702E0,-2.397238612E-1,-6.682767596E0,8.366398403E0,8.416758946E0,-2.137499128E1,2.864889090E1,-2.610199629E1
9.097608842E0,-2.449491501E0,1.504719496E0,-3.196456432E-1,-7.049370902E0,1.256171744E1,5.486975534E0,-3.884855652E1,1.442391314E1,-2.541554914E1
9.117323197E0,-1.258923411E0,1.254443169E0,1.321822405E-2,-3.526384626E0,5.014467512E0,2.373968942E0,-5.184838867E1,6.225145612E0,-5.904894802E1
9.137007035E0,-1.568559408E-1,1.187330246E0,1.003041625E0,3.168646676E0,-7.872796195E0,1.156980242E0,-5.610733032E1,-3.378001622E0,-7.851346261E1
9.156690873E0,5.730763674E-1,9.706244469E-1,1.261570871E0,8.583232335E0,-1.220720346E1,-1.407111032E0,-5.223351397E1,-5.650098528E0,-7.338439941E1
9.176374711E0,7.192780972E-1,2.418102026E-1,4.993270636E-1,8.585059030E0,-8.796229771E0,-3.987483433E0,-3.535336740E1,1.007843890E1,-3.683725412E1
9.196089066E0,6.458011866E-1,-3.194546700E-1,-3.829033375E-1,6.367946080E0,-2.771094186E0,-4.723279681E0,-2.643051801E1,1.432096427E1,-1.570944868E1
9.215772904E0,2.247772217E-1,-6.396547556E-1,-1.310886502E0,6.567905971E0,-2.595629011E0,-6.128816877E0,-2.000311279E1,2.495224653E1,-1.667465210E1
9.235487260E0,-3.489778042E-1,-7.755168676E-1,-2.408219814E0,7.216805594E0,-8.378189087E0,-7.500115531E0,-9.233993530E0,4.664166260E1,-2.077831595E1
9.255171098E0,-7.547696829E-1,-6.180597544E-1,-3.243126512E0,5.173322405E0,-5.798422677E0,-7.159386771E0,2.246889387E0,4.148968070E1,-4.836353847E0
9.274885453E0,-7.910941243E-1,-1.939961910E-1,-3.233277082E0,3.119498117E0,-4.601981027E0,-6.937353952E0,2.946334839E0,3.782997567E1,-3.913558960E0
9.294569291E0,-5.953529477E-1,1.697725058E-1,-3.059455276E0,2.238213675E0,-6.543496268E0,-6.211301531E0,7.326359340E0,3.770034354E1,-1.435809544E1
9.314253129E0,-5.194882154E-1,6.774084568E-1,-3.382687688E0,2.790023804E0,-8.281402588E0,-5.451158796E0,1.436736407E1,3.430536979E1,-1.213456726E1
9.333998002E0,-4.597762823E-1,1.466932058E0,-3.609442711E0,3.538750785E0,-7.470886230E0,-5.878180368E0,1.420353045E1,3.198401533E1,-1.090702166E1
9.353681840E0,-4.379326105E-1,2.159963489E0,-3.432158351E0,3.196190970E0,-3.871510097E0,-6.141754150E0,1.352323696E1,2.974680655E1,-6.523921422E0
9.373396195E0,-2.881398797E-1,2.341374040E0,-3.396189570E0,2.752434867E0,-1.441493443E0,-6.463006156E0,1.331733486E1,2.906069510E1,-4.865424020E0
9.393080033E0,-5.228737593E-1,2.716231227E0,-3.055755258E0,2.937942505E0,-1.950533186E0,-7.080099923E0,1.313845607E1,3.150620161E1,-6.509218488E0
9.412763871E0,-5.428318977E-1,3.457170725E0,-3.325810552E0,3.496141706E0,-3.837729318E0,-7.252522060E0,1.270031302E1,3.237871878E1,-9.407568795E0
9.432478227E0,-4.436088800E-1,4.685463905E0,-3.451272249E0,3.702041626E0,-4.373705183E0,-6.916052682E0,1.329886518E1,3.093159485E1,-9.216033936E0
9.452162065E0,-5.186910629E-1,5.376894712E0,-4.038653255E0,3.426895142E0,-3.811856951E0,-6.441092355E0,1.523850795E1,2.986925398E1,-6.902893066E0
9.471876420E0,-1.228844404E0,5.756255627E0,-3.535139203E0,3.125882830E0,-3.067234584E0,-5.959287371E0,1.715455409E1,2.903333609E1,-5.918535505E0
9.491560258E0,-1.772005558E0,6.293132305E0,-1.795853257E0,3.358871460E0,-2.250176566E0,-5.874980382E0,1.815670122E1,2.751130676E1,-6.380270822E0
9.511244096E0,-1.865841866E0,6.721114516E0,-9.456731081E-1,4.475575038E0,-1.191153390E0,-6.203691755E0,1.752565656E1,2.687102836E1,-7.255523682E0
9.530958451E0,-1.810482740E0,6.949886799E0,-6.039390564E-1,6.082301549E0,-6.086033412E-1,-6.852436611E0,1.915679060E1,2.611138262E1,-7.011999948E0
9.550642289E0,-1.611475229E0,7.142213941E0,-1.029672265E0,6.808656965E0,4.281964983E-1,-7.441683088E0,2.395306396E1,3.264242336E1,-3.733311244E0
9.570326127E0,-1.296046972E0,7.596450329E0,-1.730060458E0,5.826028006E0,2.399854388E0,-7.193167550E0,3.296483939E1,3.759739031E1,7.440087455E0
9.590040482E0,-1.877183080E0,7.861725092E0,-6.762608290E-1,4.799111503E0,3.994249616E0,-6.137189593E0,3.946167428E1,3.931540353E1,1.091714914E1
9.609754838E0,-8.691141605E-1,7.966479301E0,1.016168594E-1,4.459139143E0,5.039428711E0,-4.177405221E0,3.954239328E1,4.262248012E1,1.035280500E1
9.629469193E0,1.407783031E0,9.156216621E0,1.308488727E0,4.478923253E0,3.224822998E0,-2.280166626E0,3.634510585E1,3.598369925E1,1.204926627E1
9.649153031E0,1.092841387E0,9.884504080E0,4.532675266E0,5.845502581E0,4.832157680E0,-7.547084263E-1,3.257697623E1,2.792619106E1,1.239540100E1
9.668867387E0,1.439451694E0,7.882741570E0,6.049041033E0,5.055535453E0,7.130235944E0,4.225594657E-1,3.164528983E1,2.470222473E1,1.589982823E1
9.688551225E0,2.504486084E0,7.568929911E0,7.270969391E0,3.986160278E0,1.595610482E1,7.129167829E-1,2.967691258E1,2.361559841E1,1.970318386E1
9.708265580E0,2.918798923E0,9.019672632E0,6.842848659E0,2.903396606E0,1.855809021E1,-3.027365548E-1,3.826902117E1,3.247756304E1,5.843281991E1
9.727949418E0,2.474552870E0,9.451461077E0,4.723885417E0,1.634817941E0,1.669692121E1,2.397862026E0,1.989249529E1,1.645761762E1,-1.113926043E1
9.747633256E0,2.125186682E0,9.204549789E0,2.829531431E0,9.708535331E-1,1.094920785E1,3.668873378E0,7.019897461E0,9.525035313E0,-1.475963484E1
9.767347611E0,3.232757807E0,9.440822601E0,1.869903803E0,1.892613002E0,3.990903582E0,2.344903128E0,-6.090406145E0,1.744642203E1,-1.853700256E1
9.787031449E0,2.424486279E0,8.950493813E0,4.755494595E-1,9.560917446E-1,5.335874285E0,2.203220912E0,-7.314527239E0,1.236968994E1,3.045700073E0
9.806715287E0,1.328961253E0,7.318629861E0,-2.516628504E0,3.228694371E-1,2.951660156E0,1.313422067E0,-6.617257254E-1,9.435082572E0,3.413724627E0
9.826429643E0,-6.676455736E-1,5.988357663E0,-5.606534481E0,4.111306327E-1,3.741479056E0,1.213287354E0,2.336159842E0,8.287575858E0,-1.055565970E0
9.846113481E0,-2.092049778E0,4.324697614E0,-7.751543999E0,-1.752188546E-1,4.205322266E0,1.247222900E0,5.922330584E0,4.557410104E0,3.459553310E0
9.865827836E0,-2.614141881E0,2.724466324E0,-8.357088089E0,-7.143075126E-2,4.386570522E0,7.628370013E-1,3.953613281E0,4.407943726E0,-2.217014858E-1
9.885511674E0,-3.217687428E0,1.499496460E0,-7.806601524E0,-3.382023403E-1,4.498273577E0,3.355102539E-1,1.537179129E0,3.539191110E0,9.473528181E-1
9.905226029E0,-2.410552025E0,4.290488958E-1,-7.057304978E0,-4.465571812E-1,3.427682059E0,1.851763044E-2,1.253293719E0,3.784766061E0,-1.406832014E0
9.924940385E0,7.331694961E-1,6.190924644E-1,-5.361674905E0,-5.896061489E-1,3.015574864E0,-2.208644322E-1,1.286468506E0,3.311741420E0,-1.154412406E0
9.944624223E0,2.870687187E0,1.874891043E0,-4.324671865E0,-6.917179653E-1,2.222715105E0,-6.046600342E-1,1.456457955E0,3.556291853E0,-1.492335728E0
9.964308061E0,3.014708519E0,1.982821584E0,-4.565208554E0,-7.492414202E-1,1.700735910E0,-1.053747995E0,1.134608677E0,3.967751639E0,-2.003670829E0
9.984022416E0,1.503490388E0,1.763472080E0,-5.518311739E0,-7.770930699E-1,1.046513149E0,-1.508767264E0,1.374032157E0,4.382289342E0,-2.342620850E0
1.000370625E1,4.628672600E-1,1.910373926E0,-6.007825017E0,-7.156110491E-1,5.814470564E-1,-1.923307146E0,2.540004185E0,5.048224313E0,-3.330400739E0
1.002342061E1,7.326170802E-1,2.045959473E0,-5.183956861E0,-6.026938302E-1,2.988477434E-1,-2.218233381E0,4.332580566E0,6.187517439E0,-3.860201154E0
1.004313496E1,4.156201482E-1,2.013477802E0,-4.689900875E0,-4.902321952E-1,1.682761056E-1,-2.293716431E0,6.485648019E0,7.926395961E0,-3.969994681E0
1.006278828E1,-4.831892252E-2,1.946354747E0,-4.950565934E0,-4.381866455E-1,2.463466099E-1,-2.227818080E0,7.794937134E0,1.010135324E1,-3.530827114E0
1.008250264E1,-4.699349701E-1,2.057909131E0,-5.165870786E0,-5.532313756E-1,7.346670968E-2,-2.074266706E0,7.597586496E0,1.173454285E1,-2.075840541E0
1.010218648E1,-1.083502889E0,2.727417707E0,-4.287151456E0,-6.854793004E-1,-8.193795340E-1,-1.705535889E0,7.165263585E0,1.226332092E1,-1.653431484E0
1.012190083E1,-1.866985023E0,3.707550049E0,-2.567588925E0,-8.221391950E-1,-1.690152849E0,-1.239100865E0,6.859488351E0,1.307563564E1,-1.553560529E0
1.014158467E1,-2.746489823E0,4.166746736E0,-2.194068909E0,-8.656638009E-1,-2.785398211E0,-6.675109863E-1,6.239388602E0,1.340090724E1,-1.695844378E0
1.016126851E1,-3.627514958E0,4.412744403E0,-2.300531983E0,-3.916168213E-1,-3.733939035E0,-8.693804060E-2,5.772517613E0,1.129708862E1,-3.305777414E0
1.018098286E1,-3.672352135E0,4.298355818E0,-2.018662930E0,3.357587542E-2,-3.800441197E0,3.242470878E-1,5.343957084E0,8.973002842E0,-1.708158221E0
1.020069722E1,-3.533176839E0,4.213027596E0,-1.286909699E0,3.131321498E-1,-3.270551409E0,8.092455183E-1,6.272567749E0,7.595995222E0,2.665706090E0
1.022041158E1,-4.830480576E0,3.508995295E0,-1.009513021E0,4.236145020E-1,-2.045950753E0,1.305664062E0,8.355865479E0,6.490556989E0,6.018955776E0
1.024009541E1,-4.984320402E0,2.846283376E0,-1.436614633E0,2.973044259E-1,-4.016396659E-1,1.588716779E0,9.257450649E0,6.424547468E0,8.825988770E0
1.025980977E1,-3.139555395E0,3.655223310E0,-1.636435151E0,4.989384242E-1,1.277066912E0,1.640459333E0,8.175273350E0,6.472087315E0,7.060089111E0
1.027949361E1,2.261688054E0,5.643174171E0,1.488746405E0,6.381901332E-1,2.400767735E0,1.604697091E0,6.220232282E0,6.207700457E0,4.815015520E0
1.029920796E1,6.121245861E0,7.369424582E0,4.865329266E0,6.249498640E-1,2.844981602E0,1.446125575E0,4.033987863E0,6.727582659E0,4.522580828E0
1.031889180E1,7.693984389E0,6.016529799E0,6.675134659E0,5.852268764E-1,2.781522478E0,1.298969814E0,2.393957955E0,7.364783151E0,4.545841762E0
1.033857564E1,1.017984605E1,4.898533821E0,6.541842222E0,5.062473842E-1,2.403355190E0,1.096564157E0,1.392839704E0,8.186678205E0,4.821853638E0
1.035825948E1,1.200941610E1,2.671178102E0,3.798560381E0,6.068376814E-1,1.946051461E0,8.384682792E-1,6.338784354E-1,8.841663906E0,4.175423758E0
1.037797383E1,1.099817729E1,2.424996793E-1,2.346683979E0,7.351292201E-1,1.571685791E0,5.388227190E-1,7.795867920E-1,9.022940499E0,3.466395787E0
1.039765767E1,8.845686913E0,-1.817634791E0,1.352625847E0,8.924822126E-1,1.433807373E0,2.308131627E-1,1.485188075E0,8.988396781E0,3.716761998E0
1.041737202E1,7.448374152E0,-3.066555440E0,1.418945789E-1,1.049074445E0,1.456793649E0,-1.282828195E-2,2.461680821E0,8.750000000E0,3.609704154E0
1.043705586E1,6.043581843E0,-3.361388743E0,2.671205997E-1,1.144947597E0,1.681405204E0,-2.131020682E-1,3.406367711E0,8.594033378E0,3.900085449E0
1.045677022E1,3.802480459E0,-3.295258105E0,-1.347360611E-1,1.110253470E0,2.058665684E0,-2.885829381E-1,4.225522723E0,8.635761806E0,4.720271519E0
1.047648457E1,1.795944929E0,-3.133832753E0,-5.338792801E-1,1.015751430E0,2.451899937E0,-2.436872210E-1,4.863752093E0,8.632681710E0,5.299327305E0
1.049616841E1,2.429879904E0,-2.629998922E0,3.841161728E-3,9.458966936E-1,2.743018014E0,-9.181213379E-2,4.901031494E0,8.235931396E0,4.867344448E0
1.051588277E1,3.218615651E0,-1.658897877E0,2.073461056E0,8.456115723E-1,2.881504604E0,1.437661307E-1,4.790553502E0,7.642168318E0,4.144982474E0
1.053556661E1,1.507916808E0,-1.557318717E0,2.111660004E0,7.285831996E-1,2.827176775E0,4.053628104E-1,4.361308507E0,7.336735317E0,3.447581700E0
1.055528096E1,-3.861805201E-1,-1.789735377E0,1.064147234E0,6.095777239E-1,2.529663086E0,6.783752441E-1,3.835266113E0,7.095949445E0,2.706752232E0
1.057496480E1,-1.222234011E0,-1.308074832E0,1.111350060E0,5.756399972E-1,2.178281512E0,8.702741350E-1,3.185071673E0,7.020359584E0,1.785666330E0
1.059464864E1,-3.704730868E-1,-8.082523942E-1,1.182113647E0,5.722917829E-1,1.906025478E0,9.839499337E-1,2.767111642E0,7.144856044E0,1.086903163E0
1.061436299E1,2.475107908E-1,-4.714418650E-1,1.597656965E0,5.453578404E-1,1.721891131E0,1.059740339E0,2.708973476E0,7.490308489E0,1.066722325E0
1.063404683E1,-5.576199293E-2,-3.884789348E-1,2.031732321E0,5.003138951E-1,1.507620675E0,1.149675642E0,2.832098825E0,7.795052665E0,1.276042393E0
1.065373067E1,-1.199793816E0,-3.723609746E-1,1.486056566E0,5.050288609E-1,1.307351249E0,1.228812081E0,3.019531250E0,8.139478411E0,1.186774118E0
1.067344502E1,-1.642020524E0,-1.824947000E-1,7.756676674E-1,5.473349435E-1,1.162623814E0,1.303074428E0,3.106063843E0,8.667572021E0,8.283277239E-1
1.069312886E1,-1.028945565E0,2.646861970E-1,6.567637920E-1,6.165771484E-1,1.185145787E0,1.404732840E0,3.192940848E0,9.395747593E0,7.995976039E-1
1.071284322E1,-7.157745361E-1,5.287289321E-1,8.987371922E-1,7.059086391E-1,1.206758772E0,1.621130807E0,3.365663801E0,9.836968558E0,8.943394252E-1
1.073252706E1,-1.244865119E0,2.021198571E-1,-7.500362396E-2,7.483694894E-1,1.284674508E0,1.895058768E0,3.592769078E0,9.916318621E0,9.511173793E-1
1.075224141E1,-2.043389320E0,4.009437561E-1,-1.431163549E0,7.934134347E-1,1.338243757E0,2.159395490E0,3.517185756E0,1.018754796E1,1.267493112E0
1.077195577E1,-2.269875944E0,1.163994312E0,-1.609450102E0,8.763493129E-1,1.460898263E0,2.405624390E0,3.602691650E0,1.071427482E1,9.647979736E-1
1.079163960E1,-1.019287169E0,1.808532655E0,-2.975735664E-1,9.204842704E-1,1.494380406E0,2.627201625E0,3.928301130E0,1.163569859E1,8.854479109E-1
1.081132344E1,8.129156232E-1,2.244841993E0,1.128047705E0,1.001137870E0,1.300652640E0,2.930193220E0,4.203975133E0,1.240834045E1,4.401223319E-1
1.083103780E1,4.886211157E-1,2.231195986E0,6.353082657E-1,1.134142194E0,1.102512905E0,3.158767700E0,4.041514805E0,1.263886370E1,1.511099679E-1
1.085072164E1,-3.517204523E-1,1.619466126E0,-1.148476601E-1,1.111164638E0,9.491141183E-1,3.285073417E0,3.700169155E0,1.281159319E1,1.138889858E0
1.087043599E1,-8.334484696E-1,1.215599239E0,-7.075920105E-1,1.019858224E0,9.296373640E-1,3.363449097E0,3.608503069E0,1.316046143E1,2.577120100E0
1.089011983E1,-8.811004162E-1,6.216047406E-1,-6.754190922E-1,8.590022496E-1,1.058074951E0,3.418690273E0,3.892730713E0,1.324973624E1,3.159596034E0
1.090980367E1,-8.444913030E-1,3.861861825E-1,-8.855628967E-2,6.546238491E-1,1.066142491E0,3.468150548E0,4.226549421E0,1.320492554E1,3.496837071E0
1.092951802E1,-4.475256801E-1,7.772414684E-1,4.397230148E-1,4.694235665E-1,8.200639997E-1,3.597503662E0,4.668108259E0,1.306366621E1,3.187983922E0
1.094923238E1,-4.555655122E-1,1.219605386E0,3.832180500E-1,3.452388218E-1,4.901384626E-1,3.760031564E0,5.292994908E0,1.307495335E1,2.528895787E0
1.096891622E1,-1.035270393E0,1.482221365E0,8.771538734E-2,1.889517648E-1,4.700491769E-1,3.720463344E0,5.357642038E0,1.309992327E1,2.865450178E0
1.098860005E1,-1.349454284E0,1.587300122E0,2.662024498E-1,4.407610212E-2,4.108516148E-1,3.715898786E0,5.335747855E0,1.270795768E1,3.951736450E0
1.100828389E1,-1.620829523E0,1.326511919E0,3.356220722E-1,-2.359401158E-1,-1.187351772E-1,4.035930089E0,7.395104545E0,1.264023917E1,4.689150129E0
1.102799825E1,-2.043044209E0,4.915016890E-1,-3.590641022E-1,-6.500244141E-1,-3.976832799E-1,4.252940587E0,9.364506313E0,1.339988273E1,5.990227836E0
1.104771260E1,-2.231761694E0,4.696506262E-2,-5.335359573E-1,-1.122235979E0,-4.857962472E-2,4.177614485E0,9.086096627E0,1.322818211E1,9.018550328E0
1.106742696E1,-2.166157842E0,6.781693697E-1,3.098640442E-1,-1.460837228E0,4.012669155E-1,4.191615513E0,9.650442941E0,1.073137338E1,1.035246277E1
1.108711080E1,-2.078045130E0,4.250763655E-1,4.740614891E-1,-1.959686279E0,1.062033517E0,4.153573172E0,1.080855233E1,9.415586199E0,1.152083261E1
1.110679463E1,-2.241622984E0,-4.965019822E-1,6.710743904E-2,-2.461881365E0,1.871176583E0,4.023760114E0,1.144814845E1,9.965571812E0,1.195521109E1
1.112650899E1,-2.630560398E0,-1.025940597E0,-1.109662056E0,-2.858921596E0,2.666471209E0,3.871885027E0,1.114887129E1,1.003226580E1,1.077931431E1
1.114619283E1,-2.593570530E0,-1.485808551E0,-1.926649809E0,-3.143347604E0,3.233801705E0,3.662486485E0,1.034373474E1,9.170693534E0,9.149204799E0
1.116590718E1,-2.590424418E0,-4.591480494E-1,-4.385151863E-1,-3.392615182E0,3.632973807E0,3.445626395E0,1.047712272E1,8.256794521E0,8.187757220E0
1.118559102E1,-2.294149697E0,6.493437290E-2,-2.526974678E-2,-3.643868583E0,4.486860003E0,2.990607125E0,1.068542045E1,7.780347552E0,7.979808262E0
1.120530538E1,-1.423145056E0,-3.941099644E-1,-1.009688377E0,-3.773223877E0,5.335111346E0,2.491760254E0,9.301914760E0,6.402657645E0,6.938330514E0
1.122498921E1,2.574054599E-1,-5.741282701E-1,-1.533234358E0,-3.791789464E0,5.729263306E0,1.969776699E0,7.625974383E0,4.236927577E0,4.690861293E0
1.124467305E1,2.633517385E0,1.332018018E0,1.392642736E0,-3.624086652E0,5.661690848E0,1.364253453E0,5.078201294E0,2.464194162E0,2.256297520E0
1.126438741E1,4.021725178E0,2.309529662E0,2.889702559E0,-3.359902518E0,5.052965437E0,8.410557338E-1,2.816364833E0,4.465637207E-1,2.352491106E-1
1.128407124E1,2.662375450E0,6.815752983E-1,1.171872139E0,-3.060867310E0,3.905979701E0,4.656241281E-1,1.236535209E0,-1.461955479E0,-5.757010324E-1
1.130375508E1,1.267288864E0,-1.119872212E0,-6.931154728E-1,-2.740068708E0,2.725518363E0,8.943176270E-2,3.472595215E-1,-3.199798584E0,-8.547930036E-1
1.132346944E1,1.780683994E-1,-1.096218705E0,-7.783713341E-1,-2.409382411E0,1.746542794E0,-2.811257499E-1,-5.652727400E-1,-4.533713205E0,-6.607927595E-2
1.134321431E1,-8.294321895E-1,1.730757952E-1,1.208936453E0,-2.124043056E0,9.768153599E-1,-3.946533203E-1,5.552150181E-1,-5.663436890E0,2.862091064E-1
1.136289815E1,-1.079675078E0,6.614605188E-1,1.329007983E0,-1.901099069E0,7.244982038E-1,-3.555406843E-1,3.371479579E0,-5.559119088E0,1.731968471E0
1.138258199E1,-1.371822119E0,2.078330517E-2,7.546210289E-2,-1.666591099E0,1.205385481E0,-4.468492780E-1,5.202017648E0,-4.601776123E0,2.433807373E0
1.140226582E1,-1.020325065E0,-6.002631187E-1,-5.453206301E-1,-1.387030465E0,2.072821481E0,-6.177455357E-1,5.443145752E0,-4.558340890E0,2.147875105E0
1.142198018E1,-2.212579250E-1,-2.513241768E-1,7.229009867E-1,-1.098650251E0,2.501658848E0,-8.371930804E-1,4.254595075E0,-4.965351650E0,1.317770822E0
1.144166402E1,-1.430332065E-1,5.223187804E-1,1.103900671E0,-9.053802490E-1,2.201256888E0,-9.793308803E-1,2.674765451E0,-5.016318185E0,4.295218331E-1
1.146137837E1,-9.680641294E-1,1.929355264E-1,-6.300055981E-2,-7.913992746E-1,1.717934745E0,-9.960719517E-1,2.490753174E0,-4.946201869E0,6.333727155E-1
1.148106221E1,-2.354789257E0,-4.937718511E-1,-1.382916808E0,-6.857801165E-1,1.387852260E0,-1.128620693E0,2.409694127E0,-4.842908587E0,1.387547084E0
1.150074605E1,-1.040166378E0,1.306394279E0,2.777748704E0,-5.562787737E-1,1.142689296E0,-1.316105434E0,2.124101911E0,-5.004346575E0,1.532566616E0
1.152046040E1,1.530820012E0,1.142564297E0,-3.938449621E-1,-4.284449986E-1,8.978315081E-1,-1.519265311E0,1.710586548E0,-5.045048305E0,1.205928258E0
1.154014424E1,1.032623410E0,1.322755158E0,1.435501218E0,-1.992623465E-1,8.129163470E-1,-1.812367031E0,1.422938756E0,-4.953386579E0,9.511151995E-1
1.155985860E1,-1.116246581E0,3.778173923E-1,-1.879547119E0,6.766401018E-2,1.100537981E0,-2.278193883E0,1.051838466E0,-4.404427665E0,1.479893276E0
1.157954244E1,-1.918591619E0,5.373141170E-1,1.673905849E0,2.586517334E-1,1.460442679E0,-2.803824289E0,5.196446010E-1,-3.421774728E0,3.180805751E0
1.159922627E1,-3.256543875E-1,-8.327764273E-2,-1.777942657E0,5.025961740E-1,1.736195156E0,-3.338435582E0,-6.248910086E-2,-2.686416626E0,3.965759277E0
1.161897115E1,-3.074089885E0,-1.215499818E0,-1.464601040E0,8.293282645E-1,1.925199236E0,-3.914132254E0,-6.993495396E-1,-2.212023054E0,4.120352609E0
1.163865498E1,-2.160194397E0,-9.595171213E-1,-9.819257259E-1,1.131253924E0,1.962485177E0,-4.457417079E0,-1.119360788E0,-1.840238299E0,4.041346959E0
1.165836934E1,-3.845772743E-1,1.717717052E-1,-9.050198793E-1,1.324674334E0,2.054399763E0,-4.973920550E0,-7.178148542E-1,-1.609715053E0,4.857768467E0
1.167805318E1,2.845551968E-1,5.191550851E-1,-3.527790308E-1,1.565728324E0,2.332286290E0,-5.526487078E0,-4.520612444E-1,-1.277941023E0,5.627676828E0
1.169773702E1,-3.659811020E-1,8.969563246E-2,5.018830299E-3,1.901744298E0,2.394066947E0,-6.095341274E0,-1.465151106E0,-1.409624372E0,6.120540074E0
1.171745137E1,-1.055878878E0,-1.373369098E-1,5.731006861E-1,2.140210833E0,1.885785784E0,-6.403808594E0,-1.714828491E0,-1.513602121E0,6.106515067E0
1.173713521E1,6.249920845E0,3.814887226E0,2.674530983E0,2.398311070E0,1.200210571E0,-6.532100133E0,-4.140973772E-1,-4.864872524E-1,6.038796561E0
1.175684957E1,1.834936500E0,3.381441951E0,5.019562840E0,2.231214251E0,7.657405308E-1,-6.319041661E0,3.345142909E0,1.649479457E0,7.112080165E0
1.177653340E1,5.486128330E-1,-1.083718777E0,1.975395560E0,1.673017229E0,6.981680734E-1,-5.844087873E0,8.644880022E0,4.534151350E0,1.188167245E1
1.179624776E1,1.470601559E-1,-3.714647889E-1,-1.027213573E0,1.240975516E0,1.527535575E-1,-5.233232771E0,1.048259844E1,5.715863909E0,1.336436462E1
1.181593160E1,-1.382967710E0,2.435080051E0,7.117357254E-1,6.418435233E-1,-6.647578648E-1,-4.522402082E0,1.247081648E1,4.831379482E0,1.536934117E1
1.183561543E1,-1.123576760E0,2.430891335E0,-7.070648670E-1,3.275887626E-1,-9.555794852E-1,-3.799695696E0,1.466424125E1,4.407599313E0,1.466954912E1
1.185532979E1,2.564846277E-1,9.941647053E-1,1.000833154E0,1.400974819E-1,-8.038526263E-1,-3.078053066E0,1.655771528E1,2.782281058E0,1.211972264E1
1.187501363E1,1.522012949E0,7.468121052E-1,6.656632423E-1,1.038818359E-1,-2.867453439E-1,-2.621207101E0,1.612949480E1,9.370356968E-1,1.079709952E1
1.189472798E1,2.754296422E0,1.056549728E0,8.685386181E-1,1.075330462E-1,1.603633336E-1,-2.262368338E0,1.431742859E1,-8.004717146E-1,9.769302368E0
1.191444234E1,2.093573689E0,1.968110323E0,2.112190366E0,1.977778843E-1,3.291299003E-1,-1.844783238E0,1.267910985E1,-1.938400269E0,8.799994332E0
1.193412618E1,1.956428051E0,2.784322858E0,1.182317138E0,2.315630232E-1,4.644208636E-1,-1.454284668E0,1.179051644E1,-2.482227870E0,8.220596313E0
1.195384053E1,1.246016264E0,2.661160588E0,1.324427962E0,2.816314697E-1,5.984889439E-1,-1.190401350E0,1.014364624E1,-2.361491612E0,8.452490670E0
1.197352437E1,-8.166171312E-1,7.750576138E-1,-7.204685211E-1,2.759987967E-1,5.395943778E-1,-9.974408831E-1,8.005970546E0,-2.153538295E0,8.022903442E0
1.199323873E1,-2.233748913E0,-1.476822495E-1,-1.243278146E0,2.519531250E-1,2.889556885E-1,-8.061479841E-1,6.232206072E0,-1.899751936E0,7.735597883E0
1.201292256E1,-1.512489080E0,8.852316141E-1,-1.336559653E0,1.909288679E-1,1.343405587E-1,-5.428750174E-1,6.795185634E0,-1.369949341E0,8.227096558E0
1.203260640E1,-4.866381884E-1,1.573247433E0,-4.294908047E-1,1.216866629E-1,7.025844029E-1,-3.727351597E-1,7.778176444E0,-4.225267683E-1,1.003540039E1
1.205232076E1,-3.084318638E-1,1.203584373E0,-2.077133656E-1,7.359967913E-2,1.036618914E0,-2.841687884E-1,6.628620693E0,-6.681823730E-2,1.073347909E1
1.207200459E1,-1.353936434E0,7.740540504E-1,-1.813363791E0,1.015995571E-1,9.660055978E-1,-2.271030971E-1,4.533693586E0,-2.775094169E-1,1.000803920E1
1.209168843E1,-1.883046031E0,2.820504308E-1,-1.778818607E0,1.120997838E-1,6.356244768E-1,-2.074693952E-1,3.134453910E0,-1.978149414E-1,9.374943324E0
1.211140279E1,-2.252502561E0,4.928945303E-1,-1.635888577E0,8.988080706E-2,1.914062500E-1,-1.301618304E-1,2.896401542E0,3.880789621E-1,9.820606777E0
1.213108662E1,-9.441775084E-1,3.677755594E-2,-1.069228768E0,1.432974679E-1,3.618512835E-2,-7.644217355E-2,3.733346122E0,7.749154227E-1,9.752199445E0
1.215080098E1,-4.785267115E-1,2.650224566E-1,1.470463157E0,1.297520229E-1,2.629307338E-1,-1.030731201E-1,4.181745257E0,1.090948922E0,1.026216779E1
1.217048482E1,-2.751682997E-1,3.283409476E-1,2.607939363E0,1.557769775E-1,5.507049561E-1,-1.774902344E-1,3.897521973E0,1.177139282E0,1.066336496E1
1.219019917E1,-8.293660879E-1,1.409386396E-1,2.432403207E0,1.481650216E-1,5.392957415E-1,-2.512948172E-1,2.798239572E0,1.217156546E0,1.031381226E1
1.220991353E1,-1.062690973E0,2.227132916E-1,1.373453617E0,1.725180490E-1,3.714381627E-1,-3.279963902E-1,2.049194336E0,1.355337960E0,9.636938913E0
1.222959737E1,-8.858532906E-1,2.603662610E-1,7.423374653E-1,2.053876604E-1,2.757175991E-1,-4.059121268E-1,2.289640154E0,1.719935826E0,9.348266602E0
1.224931172E1,-1.554670334E-1,-6.250751019E-2,3.381519318E-1,2.327771868E-1,3.980669294E-1,-4.996534075E-1,2.774638585E0,2.185100010E0,9.461135864E0
1.226899556E1,2.403345108E-1,1.227949858E-1,2.230888605E-1,3.144989014E-1,5.211835589E-1,-6.131831578E-1,2.695628575E0,2.292155675E0,9.600339617E0
1.228870992E1,5.003134012E-1,6.450163126E-1,3.004914522E-1,4.380689348E-1,4.274357387E-1,-7.585144043E-1,2.008492606E0,2.026397705E0,8.411448887E0
1.230839375E1,1.854686379E0,1.318833113E0,3.195106983E-2,5.949685233E-1,2.748064314E-1,-9.627423968E-1,1.203358241E0,2.420416696E0,7.284463065E0
1.232807759E1,3.922993660E0,2.091747761E0,-2.794090629E0,6.674063546E-1,1.209477016E-1,-1.179142543E0,8.914271763E-1,3.237860543E0,7.170909337E0
1.234779195E1,2.919572055E0,2.990831375E0,-1.092286110E0,6.007516044E-1,1.171395438E-1,-1.250514439E0,1.743763515E0,4.000248500E0,7.997593471E0
1.236747578E1,1.842655480E0,3.627470493E0,-2.715697408E0,4.899662563E-1,2.224535261E-1,-1.135469709E0,3.515810285E0,4.606665475E0,9.665669033E0
1.238715962E1,-5.778251290E-1,4.113622308E0,-3.482691765E0,4.779423305E-1,3.253261021E-1,-1.038378034E0,3.801409040E0,4.946977888E0,9.802477155E0
1.240687398E1,-2.610680163E0,3.495052099E0,-6.506769896E0,4.414193290E-1,2.778429304E-1,-9.157191685E-1,3.035949707E0,4.716796875E0,8.983664376E0
1.242655782E1,-3.797824502E0,3.475771964E0,-8.680311441E0,4.163077218E-1,4.684448242E-3,-7.601906913E-1,2.213368007E0,4.337827410E0,8.269845145E0
1.244627217E1,-2.631012678E0,4.325815916E0,-6.038439035E0,3.565019880E-1,-2.252655029E-1,-6.185106550E-1,1.890492031E0,4.110039847E0,8.032821655E0
1.246595601E1,-7.998189330E-1,4.326393247E0,-2.460381985E0,3.411298479E-1,-2.640664237E-1,-5.786416190E-1,1.850819179E0,3.641457694E0,7.989724295E0
1.248570088E1,-2.744320452E0,2.746436059E0,-1.111606359E-1,3.341304234E-1,-9.027971540E-2,-6.162305559E-1,1.887076242E0,3.511485509E0,8.499010359E0
1.250538472E1,-4.218726516E0,-3.615498543E-1,-7.449072599E-1,2.466299874E-1,5.748203823E-3,-5.223345075E-1,2.177799770E0,3.914053781E0,8.980584281E0
1.252503804E1,-4.035730839E0,5.814100504E-1,-3.004443288E0,1.802738735E-1,-4.902430943E-3,-3.566066197E-1,2.413800921E0,4.382638114E0,9.092769078E0
1.254478291E1,-1.599419117E-2,2.746867478E0,-3.015579581E0,1.359928676E-1,-4.142761230E-2,-2.596653530E-1,1.784805298E0,4.767756871E0,8.773657663E0
1.256446675E1,6.227195263E-2,1.815554857E0,-2.312510490E0,1.149902344E-1,4.744175502E-2,-2.048797607E-1,1.515973772E0,4.888837542E0,8.696701050E0
1.258415059E1,-1.325784683E0,-2.598702908E-2,5.193793774E-2,6.766401018E-2,1.229291643E-1,-1.595328195E-1,1.190702166E0,5.021887643E0,8.854372297E0
1.260386495E1,-2.533850193E0,-1.534709930E-1,2.072630644E0,5.792018345E-2,1.188180106E-1,-9.120178223E-2,9.157082694E-1,4.643942697E0,8.870792934E0
1.262354878E1,-3.846528053E0,-6.943116188E-1,2.113223314E0,1.283809117E-1,5.520629883E-2,-5.376543318E-2,4.933035714E-1,3.896608625E0,8.161084856E0
1.264326314E1,-4.173868656E0,-1.389643312E0,1.385002494E0,2.347542899E-1,1.113608224E-1,-7.568141392E-2,3.062155587E-1,3.497804914E0,7.999989101E0
1.266294698E1,-3.074100137E0,-1.236590624E0,2.495964050E0,1.965593610E-1,2.702396938E-1,-1.303144182E-1,3.366568429E-1,4.087461199E0,8.707645961E0
1.268266133E1,6.040139198E-1,5.782058239E-1,3.834259391E0,1.359950474E-1,3.645913260E-1,-1.627262660E-1,3.411036900E-1,4.242058890E0,9.109527588E0
1.270234517E1,4.890741944E0,1.360275030E0,4.082480550E0,1.226000105E-1,3.793509347E-1,-2.231445312E-1,3.263963972E-1,3.436240060E0,8.847189767E0
1.272202901E1,8.647978783E0,1.699564457E-1,3.959606051E0,1.957986014E-1,2.177363804E-1,-3.203866141E-1,-1.346588135E-1,2.868471418E0,8.239408221E0
1.274171285E1,1.053988886E1,-9.047560692E-1,4.918216109E0,3.940887451E-1,-1.784188407E-2,-3.570665632E-1,-4.223044259E-1,2.413918631E0,7.017680577E0
1.276145772E1,1.045111752E1,-2.965514898E0,4.874444366E0,5.847756522E-1,-2.271161761E-2,-4.620666504E-1,-3.614262172E-1,2.263081142E0,6.714987619E0
1.278117207E1,7.859204173E0,-4.365474224E0,5.222129583E0,5.928410121E-1,7.925197056E-2,-5.975102016E-1,-4.240155901E-1,3.432133266E0,8.178185599E0
1.280085591E1,5.893806219E0,-5.024277568E0,5.660676718E0,6.030338832E-1,-8.693368094E-2,-5.917271205E-1,-2.170846122E-1,3.981776646E0,8.476091657E0
1.282053975E1,5.439998507E0,-5.910218000E0,4.337838829E0,6.392538888E-1,-6.309770857E-1,-4.110892160E-1,4.012996129E-1,3.758089338E0,7.721575056E0
1.284025411E1,4.665609121E0,-5.776893139E0,3.647094429E0,6.646663121E-1,-1.136213030E0,-1.640973772E-1,1.791990008E0,3.354492188E0,6.369877407E0
1.285993794E1,3.641524553E0,-5.350794554E0,3.023335218E0,3.351941790E-1,-1.276678903E0,1.128736223E-1,3.701535906E0,4.600507464E0,8.447363717E0
1.287962178E1,2.754020691E0,-4.836467862E0,2.485264659E0,4.270499093E-2,-9.799259731E-1,4.202771868E-1,6.107709612E0,6.351695469E0,1.064079285E1
1.289933614E1,3.511115432E0,-4.329548836E0,1.955805182E0,-2.881731306E-2,-6.573050363E-1,5.589141846E-1,6.453159877E0,6.347248622E0,1.061958531E1
1.291901998E1,3.433477283E0,-4.194367051E0,1.544005811E0,9.530203683E-3,-5.230800084E-1,6.486968994E-1,5.108984811E0,4.515683855E0,8.955274309E0
1.293873433E1,2.358192205E0,-3.611925960E0,1.948454499E0,1.738869803E-1,-5.347987584E-1,7.427433559E-1,4.112655640E0,3.039485386E0,7.282754081E0
1.295841817E1,1.415805697E0,-2.550660491E0,2.344150066E0,2.143620082E-1,-3.366612026E-1,6.731981550E-1,3.310256958E0,3.034358433E0,7.096346174E0
1.297813252E1,1.498176575E0,-2.310322821E0,1.405626059E0,6.020682199E-2,-1.394304548E-1,5.415627616E-1,2.415167672E0,4.147663661E0,9.012736729E0
1.299781636E1,2.401409745E0,-2.647057712E0,1.746118784E0,-5.438668387E-2,-9.332057408E-2,4.905809675E-1,2.166512626E0,4.872419085E0,9.552453177E0
1.301750020E1,4.628787041E-1,-1.573513865E0,1.796613812E0,-6.016976493E-2,-2.801993234E-1,4.345790318E-1,2.050563267E0,4.494818551E0,8.605377197E0
1.303721456E1,-1.711408496E0,-7.555879951E-1,3.152487278E-1,-2.669416155E-2,-5.497087751E-1,4.193616595E-1,1.893574306E0,3.856251308E0,7.688400269E0
1.305692891E1,-1.835854292E0,-1.238428235E0,-6.306159496E-1,-2.044895717E-2,-6.627829415E-1,5.093013218E-1,2.717178345E0,3.372961862E0,7.530042376E0
1.307664327E1,-2.009035707E0,-1.244106531E0,-5.753273964E-1,-1.434108189E-1,-5.271868025E-1,4.831237793E-1,3.350612095E0,4.034447806E0,8.958694458E0
1.309632710E1,-1.345042825E0,-1.042287946E0,-7.352418900E-1,-1.195199149E-1,-5.763419015E-1,4.292537144E-1,3.492898124E0,4.543729510E0,8.975799561E0
1.311601094E1,9.966139793E-1,-8.931046128E-1,-2.023944139E0,1.866367885E-2,-1.061192104E0,3.548387800E-1,2.886825562E0,4.212302072E0,7.954500471E0
1.313572530E1,1.310195744E0,2.561380267E-1,-2.588283062E0,-1.525399344E-1,-1.621823992E0,3.756866455E-1,1.662020002E0,3.440004621E0,6.391082764E0
1.315540914E1,-3.738439083E-2,7.698360085E-1,-3.478406191E0,-8.498338972E-1,-1.438749041E0,3.737095424E-1,2.339575631E0,4.351165771E0,8.710039411E0
1.317509297E1,1.039317846E-1,4.017573595E-1,-3.272539616E0,-6.223253523E-1,-1.557298933E0,4.583195278E-1,4.974912371E0,5.471653530E0,9.327401297E0
1.319480733E1,7.033239603E-1,4.552721381E-1,-3.168740273E0,-5.232522147E-1,-9.033813477E-1,4.357975551E-1,5.982186454E0,4.867289952E0,8.608797346E0
1.321449117E1,7.891025543E-1,6.186220050E-1,-2.796908617E0,-2.610473633E-1,-1.108825684E0,3.353598458E-1,5.566622053E0,4.692167010E0,7.574846540E0
1.323420552E1,4.445747137E-1,2.402578473E0,2.195568085E-1,-5.495801653E-1,-5.367780413E-1,1.290021624E-1,2.990112305E0,3.724914551E0,5.861968994E0
1.325388936E1,1.993043363E0,5.415896773E-1,1.749093533E-1,-6.597617013E-1,-1.253851754E0,2.047860282E-1,3.262370518E0,3.998192923E0,9.217956543E0
1.327360372E1,4.348674774E0,-2.538644195E0,-1.914077759E0,1.653180804E-2,-1.170150757E0,1.363045829E-1,4.909240723E0,3.302163260E0,5.548326765E0
1.329328755E1,4.851121187E0,-2.287679136E0,-6.062253952E0,-6.755283901E-3,-1.329031808E0,-1.552756173E-1,2.619358608E0,2.150554112E0,5.173119681E0
1.331297139E1,2.878792942E0,-1.289491236E0,-2.179343224E0,-3.996865409E-1,-2.092668806E0,-1.654706682E-1,2.464416504E0,2.158078875E0,6.948931013E0
1.333271626E1,-1.132962680E1,1.517185748E1,5.923197746E0,-2.695704869E-1,-1.953730992E0,-1.277269636E-1,4.712912423E0,2.928327288E0,5.403647287E0
1.335240010E1,-3.932893172E0,1.878993917E1,-1.492305374E1,-1.928689139E-1,-1.577843802E0,-2.397330148E-1,5.893940517E0,3.733461652E0,6.541231428E0
1.337208394E1,-1.273234800E0,-1.950027585E0,-7.637193441E0,1.073826381E-1,-1.185828073E0,-4.008898054E-1,6.314978463E0,3.694813320E0,6.392111642E0
1.339179830E1,8.342211962E0,-4.687938809E0,5.977518797E0,2.289733887E-1,-1.195720128E0,-5.080283029E-1,5.499239240E0,3.291904994E0,6.575439453E0
1.341148213E1,6.057362318E0,1.332492471E0,1.285768580E1,-1.852857317E0,-3.334655762E-1,-1.688145229E-1,5.241350446E0,3.227602277E0,6.985185896E0
1.343116597E1,3.241458178E0,1.769171476E0,1.585949183E0,-7.565482003E-1,-1.367071969E0,8.653913225E-4,1.274922398E1,7.287828718E0,1.201164464E1
1.345088033E1,1.133933514E0,-1.840860844E-1,-4.321397066E0,-2.128077916E-1,1.945135934E0,-4.110870361E-1,9.319699969E0,7.053194318E0,1.034596252E1
1.347056416E1,-2.654995620E0,-5.461081266E-1,-2.736421347E0,-1.995675223E-1,1.448571341E0,-5.596160889E-1,6.646063668E0,2.599977766E0,7.678137643E0
1.349027852E1,-1.386683702E0,-1.327977896E0,-3.801856041E-1,-5.990426200E-1,-8.449423654E-1,-3.798893520E-1,6.598179408E0,2.512765067E0,5.485735212E0
1.350996236E1,1.086006165E-1,-1.735805035E0,1.491014957E0,-3.266383580E-1,-1.091929844E0,-2.010781424E-1,5.630233765E0,3.722176688E0,7.570395333E0
1.352964620E1,1.336921483E0,-5.388967991E-1,1.956629753E0,-2.853960310E-1,-2.497774397E0,-2.207096645E-1,4.695133754E0,6.178283691E0,6.475566319E0
1.354936055E1,6.492765546E-1,-5.412213802E-1,8.486278057E-1,-1.735403878E-1,-2.199502128E0,-1.068769182E-1,5.454779489E0,5.314322335E0,6.139354161E0
1.356907491E1,4.101841152E-1,-1.054912806E0,-2.686228752E-1,-1.096235003E-1,-1.553192139E0,-1.190534319E-1,7.092409406E0,4.075147356E0,7.138416835E0
1.358875874E1,-2.690473497E-1,-1.067559123E0,5.836355686E-1,-1.657823835E-1,-1.005490984E0,-2.266453334E-1,8.250174386E0,3.920211792E0,6.555258615E0
1.360844258E1,2.885957062E-1,-1.490399003E0,1.676862240E-1,-2.161560059E-1,-4.620557513E-1,-2.739715576E-1,9.838559832E0,4.115509033E0,6.736190796E0
1.362815694E1,5.038695931E-1,-7.696912289E-1,7.214052677E-1,-5.165601458E-1,4.714093890E-2,-2.843213763E-1,9.181862967E0,4.861816406E0,7.675744193E0
1.364787129E1,4.665983319E-1,-5.286386013E-1,8.791422844E-1,-6.734575544E-1,6.354718890E-1,-1.158556257E-1,9.026929583E0,5.686444964E0,7.164073399E0
1.366755513E1,2.460817099E-1,-1.219393969E0,1.021999359E0,-6.276506696E-1,1.479315622E0,3.300258092E-3,8.860013689E0,6.166312081E0,7.457870483E0
1.368726949E1,-1.535342634E-1,-1.615951657E0,6.340353489E-1,-4.421430315E-1,1.536531721E0,-7.978820801E-2,7.584590367E0,5.319104876E0,6.693095616E0
1.370695332E1,-2.399157882E-1,-1.426336646E0,5.906057358E-1,-2.742854527E-1,1.279804775E0,-1.030752999E-1,5.439725603E0,3.451627459E0,5.378335135E0
1.372666768E1,1.757403314E-1,-1.076891661E0,8.326888084E-1,-2.640904018E-1,8.833748954E-1,-4.068211147E-2,4.245019095E0,2.932774135E0,5.230582101E0
1.374635152E1,5.159690380E-1,-9.847615957E-1,1.099961996E0,-1.211940220E-1,8.197631836E-1,-3.945922852E-2,4.813470023E0,3.864804949E0,5.167306083E0
1.376603536E1,3.951772153E-1,-1.289637208E0,5.195062160E-1,-9.654017857E-2,9.144199916E-1,-1.621202741E-1,5.708219256E0,4.557412284E0,6.253245762E0
1.378574971E1,9.522464871E-2,-9.096562862E-1,8.165686131E-1,-6.869288853E-2,1.140559605E0,-2.319728306E-1,5.874444144E0,4.397683280E0,6.417759487E0
1.380543355E1,1.036489010E-2,-8.117841482E-1,8.311994076E-1,-3.658403669E-2,1.029619489E0,-2.598179408E-1,5.343274798E0,4.073782785E0,5.880092076E0
1.382511739E1,-6.447368860E-2,-1.323870897E0,8.729383945E-1,-4.616655622E-2,7.766919817E-1,-1.997070312E-1,4.189952305E0,3.509094238E0,5.169012887E0
1.384483174E1,-9.148427844E-2,-1.277760148E0,6.127464771E-1,5.305480957E-2,5.269666399E-1,-2.678833008E-1,3.649889265E0,3.471812657E0,5.221003941E0
1.386451558E1,-2.130374312E-1,-1.007909060E0,7.053823471E-1,1.935163225E-1,3.140672956E-1,-2.124873570E-1,3.611243112E0,3.569974627E0,5.538746425E0
1.388422994E1,1.685668528E-1,-9.213171005E-1,9.557940960E-1,4.348776681E-1,4.842027937E-1,-1.791665213E-1,4.750538417E0,3.179031372E0,6.152348110E0
1.390394429E1,1.929338574E-1,-6.190419197E-1,1.003958702E0,6.056213379E-1,8.934173584E-1,-2.907126290E-1,5.063838414E0,3.468390329E0,8.527398246E0
1.392362813E1,9.724566340E-2,-8.323303461E-1,6.197283268E-1,7.071271624E-1,1.069643293E0,-3.129337856E-1,5.178418841E0,3.726623535E0,9.699186053E0
1.394334248E1,-1.963855028E-1,-1.121175766E0,5.096938610E-1,7.514103481E-1,9.991803850E-1,-3.584354946E-1,4.680766514E0,3.593573434E0,9.986831665E0
1.396302632E1,-4.423983097E-1,-1.281280279E0,5.885288715E-1,7.581045968E-1,8.463919503E-1,-4.030216762E-1,4.077425276E0,3.767665318E0,9.183408465E0
1.398274068E1,-3.924561739E-1,-1.024183035E0,5.494790077E-1,7.456272670E-1,7.576729911E-1,-4.987422398E-1,3.955322266E0,3.960571289E0,8.364251273E0
1.400242452E1,-1.854535341E-1,-6.570634842E-1,5.396695137E-1,6.244899205E-1,6.360800607E-1,-5.188337054E-1,4.182429722E0,4.029658726E0,8.016747611E0
1.402210835E1,2.690720558E-2,-5.149694681E-1,9.876098633E-1,5.204010010E-1,5.984933036E-1,-4.946332659E-1,4.697184971E0,3.880536761E0,7.674713135E0
1.404182271E1,-2.528871298E-1,-6.250010729E-1,7.770116329E-1,3.616768973E-1,6.333378383E-1,-4.905242920E-1,4.890086583E0,4.220509120E0,7.664799282E0
1.406150655E1,-8.308785558E-1,-8.538926840E-1,4.638576508E-2,1.696232387E-1,7.276894706E-1,-4.171752930E-1,4.977985927E0,4.776648385E0,7.773223877E0
1.408122090E1,-9.102553129E-1,-8.621169925E-1,-3.811280727E-1,6.507655552E-2,9.065028599E-1,-2.356196812E-1,5.796118600E0,5.414531163E0,7.740046910E0
1.410090474E1,-8.284597397E-1,-2.122657895E-1,3.003036976E-1,3.479221889E-2,1.108598982E0,-2.987888881E-2,7.982369559E0,6.122874669E0,5.546273368E0
1.412058858E1,-3.943977356E-1,6.218516827E-2,7.820773125E-1,-2.187391009E-1,2.064293998E0,1.776973179E-1,7.546966553E0,6.883889335E0,5.725152152E0
1.414030293E1,-8.921904564E-1,-6.624358892E-2,3.371474743E-1,-3.990740095E-1,2.268369402E0,4.873897008E-1,6.382356916E0,7.667476109E0,5.974833897E0
1.416001729E1,-1.227420866E0,-6.215234995E-1,-4.755625725E-1,-5.865609305E-1,2.190298898E0,7.514168876E-1,5.062467303E0,7.937685285E0,5.088638306E0
1.417970113E1,-1.190693557E0,-3.364618421E-1,-1.393301487E-1,-5.390821184E-1,1.613989694E0,8.988843645E-1,2.343340193E0,8.234220232E0,3.936344692E0
1.419941548E1,-1.186384380E0,2.061972022E-1,3.521196842E-1,-4.716644287E-1,5.998578753E-1,9.026881627E-1,4.591020857E-1,7.457129342E0,1.566425868E0
1.421912984E1,-7.615656257E-1,-6.979286671E-3,3.018825054E-1,-2.191968645E-1,-5.137983050E-1,8.313162667E-1,-6.928492955E-1,7.350075858E0,-4.200766427E-1
1.423881368E1,-7.004270554E-1,3.758472800E-1,2.624676228E-1,-2.542005266E-1,-1.122669765E0,7.553732736E-1,2.289188930E-1,7.992749895E0,1.242525373E0
1.425849751E1,-7.476435900E-1,5.537742972E-1,-1.385798454E-1,-2.981807164E-1,-1.372246878E0,6.595044817E-1,2.143249512E0,8.310152326E0,4.753792899E0
1.427821187E1,-5.734714270E-1,4.912433624E-1,1.348736286E-1,-1.663905552E-1,-1.423376901E0,1.256561279E-1,2.369676862E0,7.408562796E0,6.708489554E0
1.429789571E1,-2.571253777E-1,2.890245914E-1,8.613779545E-1,-4.799325126E-2,-1.924817766E0,-3.010646275E-1,6.679643903E-2,4.931248256E0,8.402899606E0
1.431757955E1,-6.151401997E-1,2.723401785E-2,8.825023174E-1,7.816205706E-2,-2.355488368E0,-6.434674944E-1,-3.884408133E-1,3.100367955E0,6.624346052E0
1.433729390E1,-8.971619606E-1,-2.076485157E-1,5.428149700E-1,2.772151402E-1,-2.628346034E0,-7.318856376E-1,8.158438546E-1,4.737662179E0,4.138137817E0
1.435697774E1,-7.517597079E-1,-1.140785217E-2,2.697126865E-1,5.747266497E-1,-2.368423462E0,-8.788909912E-1,4.785086496E0,6.707746233E0,4.576278687E0
1.437669209E1,-8.909689784E-1,5.356017351E-1,3.800737858E-1,1.166713170E0,-2.111539568E0,-1.138362340E0,4.951311384E0,5.996326991E0,4.891287667E0
1.439637593E1,-1.273826599E0,7.662132382E-1,1.216594219E0,1.293476650E0,-1.634761265E0,-1.515005929E0,4.000470843E0,4.221537999E0,6.216306414E0
1.441605977E1,-1.058252215E0,4.973284602E-1,7.607516050E-1,1.363786970E0,-1.424447196E0,-1.813733782E0,2.963437762E0,4.366557530E0,8.533551897E0
1.443577412E1,-8.438760042E-1,3.037116528E-1,1.584005356E-2,1.316153390E0,-2.016736712E0,-1.944155012E0,1.809432983E0,4.403836932E0,8.664206369E0
1.445545796E1,-5.220434666E-1,2.331243753E-1,1.738226414E-2,1.237934658E0,-3.169350760E0,-1.957087926E0,9.122903006E-1,4.059759957E0,8.127907889E0
1.447517232E1,-6.946277618E-2,2.933060527E-1,1.462364197E-2,1.114057268E0,-4.302943638E0,-2.034853254E0,1.296388899E0,3.837437221E0,7.031705584E0
1.449488667E1,-1.031457543E0,9.029326439E-1,-6.716812849E-1,8.017817906E-1,-4.974210467E0,-2.244709560E0,2.756513323E0,4.714403425E0,8.484643119E0
1.451460103E1,-8.620877266E-1,1.668950260E0,-3.801882267E-1,3.359592983E-1,-5.115892683E0,-2.268909999E0,6.543452672E0,6.650283813E0,8.599221366E0
1.453428487E1,-1.016791821E0,1.255905867E0,-3.873525858E-1,-2.188960484E-1,-4.630887713E0,-1.923610142E0,1.042206247E1,7.651402065E0,8.354673113E0
1.455396870E1,-5.516755581E-1,4.336838722E-1,-2.279858589E-1,-5.154963902E-1,-3.975448608E0,-1.357803345E0,1.409305464E1,6.824724470E0,7.790320260E0
1.457368306E1,-5.694013834E-1,9.300061464E-1,1.721372604E-1,-7.655269078E-1,-2.965881348E0,-8.814784459E-1,1.616951207E1,6.068494524E0,8.085152762E0
1.459336690E1,-8.647022247E-1,1.226130426E0,-7.518078089E-1,-9.370313372E-1,-2.230396816E0,-3.876495361E-1,1.715147182E1,4.610765730E0,8.356724330E0
1.461305074E1,-9.495271444E-1,1.006532788E0,-6.417180300E-1,-1.070192610E0,-1.761071341E0,-7.081386021E-2,1.582611520E1,2.811353411E0,7.770483834E0
1.463276509E1,-6.198158264E-1,1.114899099E0,-7.542369366E-1,-1.339248657E0,-1.377120972E0,9.247916085E-2,1.342438834E1,2.009981428E0,8.728849139E0
1.465244893E1,1.524829865E-1,1.019977689E0,-1.593450308E-1,-1.441665649E0,-1.012795585E0,4.262084961E-1,1.232819039E1,1.221945626E0,8.513368879E0
1.467216329E1,5.684406757E-1,8.192222714E-1,1.218524575E0,-1.439383371E0,-6.308266776E-1,8.017948696E-1,1.209150478E1,3.641401018E-1,7.368604388E0
1.469184712E1,8.528926373E-1,1.392909050E0,9.948862791E-1,-1.409099034E0,-2.395695278E-1,1.083781651E0,1.153160531E1,3.210427420E-1,6.891815186E0
1.471153096E1,1.326563358E-1,1.575647652E0,1.037275791E-1,-1.334224156E0,1.908024379E-1,1.266250610E0,1.086122785E1,4.410945347E-1,6.432811192E0
1.473124532E1,-1.002876163E0,8.482204676E-1,-3.638918400E-1,-1.230741228E0,6.061030797E-1,1.431056431E0,9.863527570E0,6.422075544E-1,6.149270194E0
1.475092915E1,-1.082525492E0,7.157365680E-1,-1.692419529E0,-1.059844971E0,1.149843488E0,1.649893624E0,1.038717433E1,8.354535784E-1,5.789114816E0
1.477067403E1,-8.949787617E-1,4.954496026E-1,-9.087083340E-1,-8.000706264E-1,1.746087211E0,1.811357771E0,1.096246774E1,8.525543213E-1,5.721389771E0
1.479035786E1,1.139866114E-1,1.220404804E0,-5.857563019E-1,-6.147177560E-1,2.137037005E0,1.912863595E0,1.047678484E1,6.596505301E-1,5.721047538E0
1.481007222E1,-1.805404425E-1,9.668157101E-1,-3.897843361E-1,-6.247580392E-1,2.217389788E0,2.043130057E0,9.535864694E0,1.058114188E0,6.607245309E0
1.482975606E1,-4.434984922E-1,3.080092669E-1,-4.345659018E-1,-5.437992641E-1,2.566336496E0,2.017562866E0,8.687975202E0,1.664871216E0,7.204428537E0
1.484943990E1,-1.799740791E-1,8.172691464E-1,2.280348539E-1,-2.744380406E-1,3.480183193E0,1.873598371E0,8.698577881E0,1.562946865E0,6.650000436E0
1.486915425E1,4.939526320E-1,1.320221722E0,4.402166605E-1,-2.275695801E-1,4.341070993E0,1.908451625E0,9.458565848E0,8.881247384E-1,7.205453055E0
1.488883809E1,2.053959370E-1,1.216901243E0,1.142269373E-1,-3.013741629E-1,4.507860456E0,1.870557513E0,8.206056867E0,1.269487653E0,8.216829572E0
1.490855245E1,-6.781288385E-1,5.350417495E-1,-6.544079781E-1,-3.152226039E-1,4.303176880E0,1.777119228E0,5.284443447E0,2.133111136E0,7.803320748E0
1.492823628E1,-9.262974262E-1,2.238790989E-1,-7.925324440E-1,-1.889103481E-1,4.032141549E0,1.809836251E0,4.052797590E0,1.939180647E0,6.733112880E0
1.494792012E1,-3.290706873E-1,5.106347799E-1,-4.251402617E-1,-3.627668108E-2,3.692171369E0,1.744397845E0,3.686144148E0,1.240075248E0,7.025887626E0
1.496760396E1,1.283434629E-1,8.464677930E-1,1.335144043E-3,1.116420201E-1,3.330590384E0,1.522367205E0,3.017822266E0,1.264356341E0,7.349792480E0
1.498731832E1,2.876620293E-1,9.399135709E-1,-1.877887249E-1,3.498055594E-1,3.113577706E0,1.434561593E0,3.409443447E0,1.262645176E0,7.439400809E0
1.500703267E1,4.830876589E-1,7.915011644E-1,-6.114935875E-2,5.523550851E-1,3.215388707E0,1.473364694E0,5.172943115E0,1.266751971E0,6.353801182E0
1.502671651E1,5.418242216E-1,1.173636019E0,6.309516430E-1,7.071249826E-1,3.031707764E0,1.578066145E0,5.335750035E0,2.274026053E0,6.415708269E0
1.504643086E1,2.063442230E0,1.811923027E0,8.518254757E-2,8.240007673E-1,2.531182425E0,1.568479265E0,3.737792969E0,2.949190412E0,5.311643328E0
1.506611470E1,1.823092699E-1,6.331694126E-2,1.516584039E0,9.973340716E-1,2.152101789E0,1.495280675E0,2.986696516E0,2.828798567E0,5.498731341E0
1.508582906E1,-5.032432079E-1,2.788685560E-1,-5.002517700E-1,1.182691302E0,2.186952863E0,1.322400774E0,2.992852347E0,2.724480765E0,5.737468175E0
1.510551290E1,-4.590418339E-1,3.511924148E-1,-8.986032009E-2,1.229564122E0,2.060947963E0,1.219983782E0,3.777808053E0,2.877707345E0,5.940970285E0
1.512522725E1,4.042319059E-1,6.823700070E-1,-1.532626152E-2,1.269733974E0,1.580974034E0,1.097172328E0,2.793790545E0,3.244705200E0,6.135931832E0
1.514491109E1,2.717382908E-1,4.330290556E-1,6.066787243E-2,8.302394322E-1,1.449942453E0,9.011666434E-1,2.519825527E0,5.377934047E0,9.764855521E0
1.516462544E1,-9.353983402E-2,2.757963538E-1,1.510140896E-1,9.991651263E-1,5.083966936E-1,1.273400443E0,3.717952183E0,3.770745414E0,9.402991159E0
1.518430928E1,-1.588820219E-1,4.784095883E-1,-3.807331324E-1,1.217692784E0,3.522622245E-1,1.464233398E0,5.959609985E0,4.164690290E-1,7.379544939E0
1.520399312E1,-6.129550934E-2,4.986808300E-1,-1.678800583E-2,1.839043753E0,1.173884801E0,1.282985142E0,6.477100917E0,8.994118827E-1,4.153189523E0
1.522370748E1,1.317418814E-1,4.299030900E-1,-9.945821762E-2,2.102011544E0,3.513357980E0,9.635620117E-1,7.161496844E0,6.548636300E-1,2.764894758E0
1.524339131E1,-2.868828773E-1,2.187060118E-1,1.121437550E-1,1.532400949E0,7.140130179E0,-7.451237270E-1,-1.441205706E0,6.678329468E0,1.233656965E1
1.526307515E1,-1.562145948E-1,2.846454978E-1,-1.164768934E-1,1.074336461E0,3.249176025E0,4.584699358E-1,-1.223016575E1,2.614832415E1,1.089936611E1
1.528278951E1,3.406393528E-2,2.824047804E-1,1.327581406E-1,5.121808733E-1,-4.157610212E0,1.610933576E0,-1.976141793E0,1.813766479E1,-9.299486433E0
1.530250386E1,1.761965752E-1,1.369497776E-1,1.787763834E-1,2.415965489E0,-4.047430856E0,1.121523176E0,-1.175112043E0,1.598519461E0,2.649974278E0
1.532218770E1,2.811672688E-1,1.297326088E-1,3.074029684E-1,1.217080253E0,-2.934838431E0,1.030521938E0,9.408288138E0,-7.289842878E-1,1.372486877E1
1.534190206E1,1.035619974E-1,1.910266876E-1,4.510147572E-1,7.127554757E-1,9.323730469E-1,-1.972743443E-1,8.093183245E0,5.289696830E0,2.133295332E1
1.536158589E1,-2.526301146E-1,3.564342856E-1,1.098525524E-2,5.759473528E-1,1.932200841E0,-7.079881941E-1,5.341565813E0,7.467732021E0,1.356240409E1
1.538130025E1,-2.945525646E-1,1.207133532E-1,-1.579111814E-1,4.797646659E-1,1.222889491E0,-1.787065778E-1,3.764809745E0,5.142277309E0,6.290867397E0
1.540101460E1,4.587423801E-2,7.902085781E-2,1.176924706E-1,4.523751395E-1,-9.256199428E-2,-1.394457136E-1,3.824877058E-1,4.686697824E0,2.422526768E0
1.542069844E1,3.276531696E-1,-2.331846952E-2,4.627156258E-1,3.609161377E-1,-6.758684431E-1,-1.239188058E-1,-1.817779541E0,4.302941459E0,7.406226022E0
1.544038228E1,1.429386139E-1,-8.776128292E-2,2.846062183E-1,2.619977679E-1,-8.240923200E-1,-2.578386579E-1,-3.068542480E-2,3.670530047E0,7.819050380E0
1.546009664E1,-2.006459236E-1,1.888210773E-1,8.321762085E-3,1.860569545E-1,-5.054277693E-1,-3.773018973E-1,1.362056187E0,3.431450980E0,9.681400844E0
1.547978047E1,-1.693435907E-1,-3.566145897E-4,-1.807017326E-1,1.157509940E-1,-2.745710100E-1,-4.033246722E-1,2.557789394E0,4.596060617E0,9.977255685E0
1.549946431E1,1.792418957E-2,-1.107727885E-1,2.357305288E-1,9.094456264E-2,-2.130889893E-1,-3.932843890E-1,1.985920497E0,4.865578788E0,9.355104719E0
1.551917867E1,7.294675112E-1,-2.793121338E-2,4.193370342E-1,3.646850586E-2,-3.690752302E-1,-2.173614502E-1,1.675013951E0,4.182547433E0,7.700371878E0
1.553886250E1,3.749846220E-1,1.486651301E-1,4.843366146E-1,-8.162580218E-2,-4.072701590E-1,-3.114100865E-1,1.233799526E0,4.299179077E0,8.381009783E0
1.555857686E1,-7.591650486E-1,4.164195061E-2,-3.881096840E-3,-9.106227330E-2,-4.790998186E-1,-3.132346017E-1,1.086722238E0,3.889083862E0,8.403921945E0
1.557826070E1,-4.369282722E-1,-2.413076758E-1,-4.917250872E-1,-1.628897531E-1,-5.354091099E-1,-2.671247210E-1,1.785489764E0,3.880190168E0,8.256164551E0
1.559794454E1,6.712625027E-1,-3.760742545E-1,4.792726040E-1,-2.175249372E-1,-5.090811593E-1,-2.683410645E-1,1.794039045E0,4.573486328E0,8.828042167E0
1.561765889E1,6.754657030E-1,1.094770432E-2,7.979733944E-1,-2.793077741E-1,-5.281045096E-1,-2.018410819E-1,1.872709002E0,4.649414062E0,8.908414568E0
1.563737325E1,8.338642120E-2,1.777898192E0,-1.864769816E0,-2.786996024E-1,-4.307054792E-1,-2.050323486E-1,1.733845302E0,3.975960868E0,9.089691162E0
1.565708760E1,-1.551577091E0,5.451425314E0,-9.620538950E-1,-2.675933838E-1,-4.087916783E-1,-2.079293387E-1,1.371292114E0,3.514221191E0,8.745952061E0
1.567677144E1,-4.246662855E-1,-1.175522804E-1,-2.735746980E0,-2.767224993E-1,-4.276624407E-1,-1.974247524E-1,1.293995449E0,3.537824358E0,8.662837437E0
1.569645528E1,5.776389837E-1,-1.552706361E0,2.394270301E0,-2.825012207E-1,-4.716426304E-1,-1.418805804E-1,1.508446830E0,3.805289132E0,8.712435041E0
1.571616963E1,2.405468702E0,-2.870240927E0,1.481765747E0,-2.951398577E-1,-4.383130755E-1,-1.061161586E-1,1.973262242E0,4.052575248E0,9.252153669E0
1.573585347E1,1.775680304E0,1.078621149E-1,8.057097197E-1,-2.436981201E-1,-3.287484305E-1,-9.485517229E-2,2.235602243E0,3.835043771E0,8.950827462E0
1.575553731E1,1.635331988E0,-1.200077534E-1,1.847573400E0,-2.703290667E-1,-3.107888358E-1,-8.983285086E-2,2.056721279E0,3.648300171E0,8.682678223E0
1.577525166E1,-1.150212407E0,1.970375180E0,9.196777344E-1,-3.155277797E-1,-3.281358991E-1,-7.369995117E-2,1.836794172E0,3.996486119E0,9.012050084E0
1.579496602E1,3.197641373E-1,2.617246270E0,1.147045374E0,-3.686349051E-1,-2.832445417E-1,-7.431030273E-2,1.804301671E0,4.050181798E0,8.990842547E0
1.581464986E1,1.778071761E0,1.868901730E0,4.465978503E0,-3.564649309E-1,-1.554107666E-1,-9.089878627E-2,1.790621076E0,3.535426549E0,9.137573242E0
1.583433370E1,3.748304009E0,7.194399834E-1,3.672540307E0,-3.645302909E-1,-1.724548340E-1,-7.674952916E-2,1.772833688E0,3.345262800E0,8.862583705E0
1.585401753E1,3.578039289E0,-1.699015617E0,8.368986845E-1,-3.865966797E-1,-2.056296212E-1,-8.115495954E-2,1.691087995E0,3.587757656E0,8.897131784E0
1.587373189E1,1.674905896E0,-4.713069201E0,-3.548820138E0,-3.974020822E-1,-2.420043945E-1,-3.550284249E-2,1.783438546E0,3.614096505E0,9.056514195E0
1.589341573E1,-5.688459277E0,9.703636169E-3,-3.662881374E0,-4.502062116E-1,-2.637634277E-1,9.235927037E-3,2.185320173E0,3.736199515E0,9.350315639E0
1.591316060E1,-3.050527930E0,-1.426900744E0,-5.730568647E0,-4.386400495E-1,-2.270900181E-1,3.099714007E-2,2.109392439E0,3.883616856E0,9.276094709E0
1.593284444E1,-3.403914571E0,2.296071768E0,-4.030718327E0,-4.150543213E-1,-2.021353585E-1,7.087053571E-2,2.091949463E0,3.565183367E0,8.974428449E0
1.595255879E1,-1.087170660E0,5.435862541E-1,-3.161350727E0,-3.694000244E-1,-1.459764753E-1,5.808367048E-2,1.849792480E0,3.245387486E0,8.898156302E0
1.597224263E1,-2.207559466E0,3.600305319E-1,-4.286110401E-1,-3.277021136E-1,-1.616494315E-1,3.145708357E-2,1.642521449E0,3.016913278E0,9.004185268E0
1.599192647E1,-8.177744746E-1,-2.586770058E-2,-1.173300028E0,-3.036586217E-1,-2.115652902E-1,4.073660714E-2,1.646283831E0,3.076084682E0,9.028126308E0
1.601164082E1,3.399556875E-1,8.734636307E-1,6.076788902E-2,-2.631792341E-1,-2.068481445E-1,8.471243722E-2,1.798488072E0,3.401356288E0,8.911152431E0
1.603132466E1,1.361430407E0,9.520535469E-1,1.543826580E0,-2.589198521E-1,-1.613486154E-1,1.702423096E-1,2.102547782E0,3.555949620E0,9.237106323E0
1.605100850E1,1.503517568E0,1.006540179E0,1.431544781E0,-2.240665981E-1,-7.049560547E-2,2.367466518E-1,2.172670637E0,3.593231201E0,9.496023996E0
1.607072286E1,8.299959898E-1,1.704142451E0,1.391229391E0,-1.638031006E-1,3.603254046E-2,1.999184745E-1,1.853214809E0,3.382199969E0,9.170410156E0
