"timestamp","linear_acceleration x","linear_acceleration y","linear_acceleration z","gyroscope x","gyroscope y","gyroscope z","acceleration x","acceleration y","acceleration z"
1.187133800E-2,-4.382495880E-2,-2.890622616E-2,-9.653244019E-2,-8.078575134E-2,-1.106262207E-3,-5.755805969E-2,1.102333069E0,1.089452744E0,9.809787750E0
3.158569400E-2,-1.234563291E-1,-6.319424510E-2,-1.705327034E-1,-8.567810059E-2,-3.652736119E-2,-6.644330706E-2,1.007374355E0,1.082059588E0,9.598630633E0
5.126953200E-2,2.085548639E-2,-1.335994601E-1,-1.066858768E-1,-7.319641113E-2,-1.028769357E-1,-6.430925642E-2,9.102412633E-1,9.886779785E-1,9.505597796E0
7.098388700E-2,1.252964139E-1,-1.853536963E-1,1.003265381E-3,-5.250331334E-2,-1.520298549E-1,-6.233433315E-2,1.045682635E0,8.768397740E-1,9.503546579E0
9.066772500E-2,1.602693200E-1,-1.569414139E-1,1.623749733E-2,-1.704406738E-2,-1.345302037E-1,-6.248474121E-2,1.186595372E0,7.916739328E-1,9.588027954E0
1.103820810E-1,2.214203477E-1,-1.055216193E-1,1.994898319E-1,1.765223912E-2,-9.496198382E-2,-5.579049247E-2,1.272445679E0,7.643105643E-1,9.622571673E0
1.300659180E-1,1.593382061E-1,-4.659725726E-2,2.296576500E-1,2.024405343E-2,-4.641941616E-2,-3.859601702E-2,1.368896484E0,7.656794957E-1,9.734076364E0
1.497802740E-1,2.984029055E-2,5.469888449E-3,9.500384331E-2,2.800423758E-2,3.241184780E-2,-4.026576451E-2,1.415758405E0,8.405827114E-1,9.869855608E0
1.694641120E-1,-2.151587605E-2,-3.895263374E-2,-2.749300003E-2,2.511160714E-2,5.371747698E-2,-4.209463937E-2,1.338801793E0,8.645259312E-1,9.866095407E0
1.891784670E-1,4.801461101E-2,-2.671101689E-2,-2.569627762E-2,1.141575405E-2,1.034545898E-2,-3.037588937E-2,1.223199027E0,9.182259696E-1,9.770669120E0
2.088623050E-1,2.528013885E-1,3.327399492E-3,1.647937298E-1,8.069719587E-3,-4.489571708E-2,-1.698085240E-2,1.187619890E0,8.604191371E-1,9.643092564E0
2.285766610E-1,1.495886147E-1,-1.174333692E-2,1.316282749E-1,3.657749721E-3,-4.915945871E-2,-1.637268066E-2,1.250217983E0,8.720506941E-1,9.642750331E0
2.482604990E-1,-4.524266720E-2,4.200318456E-2,-7.334160805E-2,0.000000000E0,5.112784249E-2,-1.317923410E-2,1.463300432E0,9.124101911E-1,9.808635167E0
2.679748540E-1,-1.472712159E-1,1.858080924E-2,-1.580474377E-1,-5.931309291E-3,1.345236642E-1,-1.165771484E-2,1.468771798E0,8.881247384E-1,9.892432077E0
2.876586920E-1,-9.330466390E-2,5.755963922E-2,-1.364357471E-1,-2.662876674E-2,1.091090611E-1,-8.762904576E-3,1.253633772E0,9.267752511E-1,9.715602330E0
3.073730470E-1,4.705557227E-2,4.474849999E-2,-4.935908318E-2,-2.967398507E-2,2.921186175E-2,3.714425223E-3,1.112034389E0,9.343000140E-1,9.561689104E0
3.270874030E-1,1.273744702E-1,4.019433260E-2,3.264808655E-2,-3.439331055E-2,-6.605093820E-2,9.948730469E-3,1.043633597E0,9.226706369E-1,9.550750732E0
3.467712410E-1,-1.140522957E-2,9.154367447E-2,3.875494003E-2,-3.773716518E-2,-9.709603446E-2,9.645734515E-3,1.128795079E0,9.589255197E-1,9.563060216E0
3.664855960E-1,-1.115280390E-1,1.013454795E-1,-3.683018684E-2,-3.956604004E-2,-5.281066895E-2,7.516043527E-3,1.278603690E0,9.342978341E-1,9.631123134E0
3.861694340E-1,-1.703956723E-1,9.603621066E-2,-4.841709137E-2,-2.754429408E-2,3.530447824E-2,-3.967285156E-4,1.367876325E0,9.301975795E-1,9.713211060E0
4.058837900E-1,-1.451370418E-1,1.490690857E-1,-1.020684242E-1,-2.997698103E-2,5.904279436E-2,-2.679007394E-3,1.243375506E0,9.561898368E-1,9.721420288E0
4.255676270E-1,-1.027749181E-1,1.668262780E-1,-1.304037571E-1,-3.682599749E-2,1.916939872E-2,-6.997244699E-4,1.135290963E0,9.996272496E-1,9.663275582E0
4.452819830E-1,9.684950113E-3,1.134134829E-1,-1.858615875E-2,-3.576442174E-2,-1.841735840E-2,-5.262102400E-3,1.060045515E0,9.705548968E-1,9.651988438E0
4.649658210E-1,-6.475824118E-2,5.064380169E-2,-9.581542015E-2,-4.138619559E-2,-4.261343820E-2,-1.515633719E-2,1.026530675E0,9.989384242E-1,9.622916085E0
4.846496590E-1,-2.756302655E-1,9.631568193E-2,-1.815960407E-1,-4.869515555E-2,-4.291861398E-2,-2.048601423E-2,1.074752808E0,1.026990618E0,9.534672328E0
5.043640140E-1,-3.499833345E-1,2.180307657E-1,-1.761662960E-1,-6.437247140E-2,-2.922276088E-2,-3.311375209E-2,1.119219099E0,1.062220982E0,9.573660714E0
5.240478520E-1,-1.238532364E-1,2.110248655E-1,-1.320149899E-1,-6.132507324E-2,7.910592215E-3,-3.752572196E-2,1.230717250E0,9.808175223E-1,9.658142090E0
5.437622070E-1,-3.187142015E-1,2.515256107E-1,-1.719632149E-1,-5.965096610E-2,6.038120815E-4,-4.452732631E-2,1.160603115E0,9.103546143E-1,9.585974557E0
5.634460450E-1,-4.737579226E-1,1.166100353E-1,-8.856499195E-1,-6.634957450E-2,-4.931204660E-2,-6.233215332E-2,9.704350063E-1,9.507184710E-1,9.491574969E0
5.831604010E-1,-1.049720436E0,2.328667790E-1,-9.957101345E-1,-9.023829869E-2,-1.106392997E-1,-9.109497070E-2,8.284933908E-1,1.038277762E0,9.476527623E0
6.028747560E-1,-9.705982506E-1,2.448909283E-1,-8.745169640E-2,-1.118512835E-1,-9.055001395E-2,-1.294468471E-1,9.752240862E-1,1.086162022E0,9.469000680E0
6.225891120E-1,-1.105909020E0,3.880110979E-1,4.590752125E-1,-1.031777518E-1,2.328055246E-2,-1.921452114E-1,1.063465663E0,1.059823172E0,9.583241054E0
6.422729500E-1,-1.581169844E0,6.147247553E-2,-8.979964256E-1,-9.815325056E-2,5.204119001E-2,-2.397766113E-1,8.671417236E-1,1.038960048E0,9.360578265E0
6.619873050E-1,-1.653208405E0,1.514372081E-1,-1.153391361E0,-4.534912109E-2,-1.231166295E-1,-2.857339042E-1,5.507659912E-1,9.890223912E-1,8.544839042E0
6.816711430E-1,-1.213991642E0,3.321798593E-1,-7.292604446E-1,-1.148965018E-1,-3.760441371E-1,-3.394513811E-1,1.177586147E-1,1.048195975E0,8.636502947E0
7.013549810E-1,-5.686264932E-1,5.467510223E-1,-4.003465176E-1,-1.424407959E-1,-4.938289097E-1,-4.233071463E-1,2.285744803E-1,1.043402536E0,9.398204259E0
7.210693360E-1,-3.169793785E-1,4.897897989E-1,-2.460353374E-1,-2.290278843E-1,-6.111602783E-1,-4.943738665E-1,2.063424247E-1,1.243835449E0,1.016776603E1
7.407836920E-1,-2.507181168E-1,3.361423165E-1,-7.624466419E-1,-2.191380092E-1,-9.065464565E-1,-5.101994106E-1,-1.442347935E-1,9.681570871E-1,9.075670515E0
7.604675300E-1,1.925003529E-1,4.779610187E-1,-5.926916599E-1,-2.098563058E-1,-1.161141532E0,-5.744214739E-1,-3.131975446E-1,8.077479771E-1,8.281818935E0
7.801513680E-1,1.067432582E0,1.853036582E-1,-2.138760090E-1,-1.718096052E-1,-1.148356846E0,-6.853615897E-1,9.655107771E-2,1.015016828E0,8.442914690E0
7.998657230E-1,1.754687309E0,-4.045630991E-2,4.339919090E-1,-1.890062605E-1,-9.957209996E-1,-7.774309431E-1,6.345607213E-1,1.181243896E0,8.851638794E0
8.195495610E-1,2.207879722E0,-2.293869853E-1,9.396755695E-1,-1.742466518E-1,-8.403472900E-1,-8.430197580E-1,1.374712263E0,1.313609532E0,9.008627755E0
8.392639160E-1,2.034459412E0,-3.982765079E-1,9.842553139E-1,-1.575055804E-1,-7.676042829E-1,-8.924778530E-1,1.627129691E0,1.269147600E0,9.095506941E0
8.589477540E-1,1.810257852E0,-5.453363508E-1,7.949337959E-1,-1.343754360E-1,-9.004581996E-1,-8.984113421E-1,1.778309413E0,1.133699690E0,8.561597552E0
8.786621100E-1,1.612560391E0,-4.882622063E-1,9.702126980E-1,-1.447230748E-1,-1.088248117E0,-8.740648542E-1,2.267068045E0,1.284194946E0,8.530473982E0
8.983764650E-1,1.272935569E0,-5.269951969E-1,1.009191036E0,-1.533966064E-1,-1.206492833E0,-7.926504953E-1,3.118717739E0,1.127888271E0,8.964850289E0
9.180908210E-1,5.876148939E-1,-5.165152550E-1,6.204738617E-1,-1.392408098E-1,-1.164184570E0,-7.086443220E-1,4.052799770E0,9.216439383E-1,9.210425241E0
9.377746590E-1,1.914722919E-1,-4.886452854E-1,2.316553593E-1,-1.196114676E-1,-9.826311384E-1,-6.121608189E-1,4.779953003E0,7.013789586E-1,9.832580566E0
9.574890140E-1,-2.372723818E-2,-3.036305606E-1,1.654698849E-1,-1.155068534E-1,-7.638004848E-1,-5.063956124E-1,5.196886335E0,5.980856759E-1,1.008088902E1
9.771728520E-1,1.100389957E-1,-2.434808016E-2,4.196217060E-1,-1.182403564E-1,-5.976191929E-1,-4.170663016E-1,5.078543527E0,4.263850621E-1,1.003813607E1
9.968872070E-1,1.591431499E-1,1.435462981E-1,4.951956272E-1,-1.144343785E-1,-4.583740234E-1,-3.312356131E-1,5.036130633E0,3.073577881E-1,9.854808262E0
1.016571045E0,-1.780670881E-1,1.449245065E-1,1.598711014E-1,-1.194588797E-1,-2.717960903E-1,-2.724958147E-1,4.959858486E0,3.586665562E-1,1.002001299E1
1.036254883E0,-6.030941606E-1,2.877219170E-1,-3.153965473E-1,-1.222011021E-1,-1.357509068E-1,-2.062966483E-1,4.768668039E0,3.244650705E-1,1.007883562E1
1.055969239E0,-8.706503510E-1,4.728349745E-1,-3.425359726E-1,-1.326991490E-1,-1.392473493E-1,-1.551644461E-1,4.221078055E0,2.909458705E-1,9.868491037E0
1.075683594E0,-9.781373739E-1,5.921942592E-1,-5.755827427E-1,-1.421356201E-1,-2.660173689E-1,-1.064671108E-1,3.804827009E0,2.632402693E-1,9.423171997E0
1.095367432E0,-8.787472248E-1,5.261447653E-1,-4.007313251E-1,-1.588723319E-1,-3.707144601E-1,-9.078979492E-2,3.578406198E0,3.901323591E-1,9.224452427E0
1.115051270E0,-6.844298840E-1,4.792687669E-1,-3.535485268E-2,-1.985953195E-1,-3.941497803E-1,-8.226885114E-2,3.532913208E0,4.824785505E-1,9.254549299E0
1.134765625E0,-9.309440851E-1,5.521829575E-1,4.101300240E-2,-2.649427141E-1,-2.994973319E-1,-7.983398438E-2,3.791488647E0,7.697862898E-1,9.497048514E0
1.154449463E0,-1.550126076E0,8.748455793E-1,1.782743931E-1,-3.107517787E-1,-1.709027972E-1,-8.759634835E-2,3.822272164E0,8.262176514E-1,9.514831543E0
1.174194336E0,-1.861199141E0,1.319173127E0,3.753116131E-1,-3.379930769E-1,-1.509660993E-1,-1.023624965E-1,3.554120745E0,7.827802386E-1,9.220690046E0
1.193878174E0,-1.412872672E0,1.501709223E0,7.117543221E-1,-3.676670619E-1,-2.827562605E-1,-1.190970285E-1,3.176524571E0,8.460562570E-1,8.729535784E0
1.213592530E0,-8.403697014E-1,1.641131461E0,8.751239777E-1,-4.264090402E-1,-4.335697719E-1,-1.607927595E-1,2.943601336E0,9.842398507E-1,8.687125070E0
1.233276368E0,-7.295407057E-1,1.463085204E0,6.288011074E-1,-4.764753069E-1,-6.104016985E-1,-2.058410645E-1,2.854673113E0,1.044089181E0,8.438812256E0
1.252990723E0,-1.124068975E0,1.527697980E0,3.739045858E-1,-5.114767892E-1,-7.595367432E-1,-2.473842076E-1,2.897086007E0,1.092655727E0,8.396741595E0
1.272674561E0,-1.632277966E0,1.228658974E0,-6.121516228E-1,-4.743456159E-1,-8.181283133E-1,-2.650386265E-1,3.193283081E0,8.593946184E-1,8.546892439E0
1.292358399E0,-2.433776617E0,7.431640178E-1,-1.899430394E0,-4.472590855E-1,-8.500867571E-1,-2.931910924E-1,3.410127912E0,8.785487584E-1,8.828039987E0
1.312072754E0,-2.990759730E0,6.114224494E-1,-2.590598702E0,-4.067796980E-1,-1.004093715E0,-3.196694510E-1,3.249374390E0,8.682904925E-1,8.784942627E0
1.331787110E0,-2.287802577E0,6.413391978E-1,-2.279201150E0,-4.656720843E-1,-1.361718314E0,-3.673008510E-1,2.829363142E0,1.129257202E0,8.832142421E0
1.351470948E0,-7.927353382E-1,7.390318662E-1,-1.527168393E0,-5.588073730E-1,-1.738058908E0,-4.493277414E-1,2.661769322E0,1.553713117E0,8.919701712E0
1.371154786E0,1.036955118E-1,3.004084229E-1,-1.024744511E0,-6.912013463E-1,-1.917020525E0,-5.264848982E-1,3.121800014E0,1.658375331E0,9.072590419E0
1.390869141E0,1.072623730E-1,2.208300531E-1,-1.240923285E0,-8.033599854E-1,-1.789648873E0,-6.330108643E-1,3.959769113E0,1.854701451E0,9.105080741E0
1.410552979E0,-3.404536247E-1,2.137451358E-1,-1.765048504E0,-8.748866490E-1,-1.469308036E0,-7.304077148E-1,4.533006941E0,1.744565691E0,8.960743495E0
1.430267334E0,1.569097042E-1,3.229211196E-1,-1.761898637E0,-9.439740862E-1,-1.158248901E0,-8.297816685E-1,4.621937343E0,1.583472116E0,8.601961408E0
1.449981690E0,1.052719951E0,1.578364968E-1,-1.327615857E0,-1.039393834E0,-9.257180350E-1,-9.635445731E-1,4.360966274E0,1.645374843E0,8.216833932E0
1.469696045E0,1.657792211E0,-4.407168329E-1,-1.390588641E0,-1.058412824E0,-1.020372663E0,-1.057137626E0,4.011755807E0,1.276327951E0,7.132601057E0
1.489379883E0,1.797384143E0,-7.354018986E-1,-1.697524667E0,-1.078957694E0,-1.546613421E0,-1.113444737E0,3.415601458E0,7.974875314E-1,5.855466570E0
1.509094239E0,1.715078115E0,-7.424679101E-1,-1.587896705E0,-1.077586583E0,-2.252428327E0,-1.211447580E0,2.978487287E0,6.969299316E-1,5.010654994E0
1.528778077E0,1.636915922E0,-5.603125691E-1,-1.146868587E0,-1.116091047E0,-2.698013306E0,-1.294082642E0,3.555149623E0,5.744846889E-1,4.811253139E0
1.548461915E0,2.005550385E0,-1.925888658E-1,-2.658481002E-1,-1.169812884E0,-2.626338414E0,-1.388438634E0,5.059391567E0,8.877825056E-1,5.008946010E0
1.568176270E0,2.569233656E0,-1.914888322E-1,4.698927402E-1,-1.155048915E0,-2.191098894E0,-1.458437238E0,6.596810477E0,5.700378418E-1,5.360207694E0
1.587860108E0,2.447871447E0,-4.863715768E-1,4.779095650E-1,-1.118068150E0,-1.722991943E0,-1.537571498E0,7.208698818E0,4.092843192E-1,5.424168178E0
1.607574463E0,1.313776255E0,-4.607028067E-1,-3.109473586E-1,-1.068762643E0,-1.554833548E0,-1.565876552E0,7.296258109E0,4.007350377E-1,4.730536325E0
1.627258301E0,8.293771744E-2,-3.913750350E-1,-1.280671000E0,-1.036193848E0,-1.567618234E0,-1.597834996E0,7.012034825E0,5.136021205E-1,4.130273002E0
1.646972657E0,-3.721246719E-1,-2.045808136E-1,-1.572494984E0,-9.949558803E-1,-1.503849574E0,-1.618990217E0,7.618791853E0,7.171151297E-1,3.900087629E0
1.666656495E0,2.400617599E-1,-2.412695289E-1,-1.486640692E0,-8.945159912E-1,-1.286690848E0,-1.608034406E0,8.581604004E0,7.824380057E-1,4.150113787E0
1.686370850E0,8.712186813E-1,-3.627132773E-1,-1.102026522E0,-7.297014509E-1,-1.252144950E0,-1.552786691E0,9.320386614E0,3.463505336E-1,3.885724749E0
1.706054688E0,1.047712326E0,-2.441356778E-1,-6.106716394E-1,-5.356772287E-1,-1.463067191E0,-1.455699376E0,9.670281546E0,1.828613281E-1,3.687005179E0
1.725769043E0,8.948950768E-1,-2.641463280E-2,-1.172313392E-1,-3.748212542E-1,-1.873347691E0,-1.310520717E0,9.832746233E0,1.182163783E-1,3.122998919E0
1.745483399E0,5.187070370E-1,7.548153400E-2,-1.930298209E-1,-2.911224365E-1,-2.247253418E0,-1.193036761E0,9.842322213E0,3.938947405E-1,3.176698957E0
1.765167237E0,1.368587017E-1,-1.348829865E-1,-5.327087641E-1,-2.751421247E-1,-2.439307077E0,-1.091533116E0,1.002838571E1,7.020612444E-1,3.278618949E0
1.784881592E0,-2.400319576E-1,1.292915344E-1,-5.822042823E-1,-3.410361154E-1,-2.251667568E0,-1.046486991E0,1.056195286E1,1.187744141E0,3.757121495E0
1.804565430E0,-7.577803135E-1,3.396236300E-1,-6.005720794E-1,-3.862326486E-1,-1.678405762E0,-9.964185442E-1,1.121420070E1,1.316347395E0,4.090940203E0
1.824279786E0,-8.305430412E-1,3.784272671E-1,-5.520943403E-1,-3.836430141E-1,-1.075463431E0,-9.328046526E-1,1.135511344E1,1.133017404E0,3.940107073E0
1.843963624E0,5.455446243E-2,5.776762962E-2,-1.418000013E-1,-3.787732806E-1,-7.991071429E-1,-8.699537005E-1,1.055203247E1,1.251017979E0,3.351473127E0
1.863677979E0,7.776660919E-1,4.372179508E-3,3.355930448E-1,-3.831874302E-1,-9.053257533E-1,-8.192792620E-1,9.444883074E0,1.371414185E0,2.134534563E0
1.883361817E0,1.127762079E0,2.211881876E-1,6.661075950E-1,-3.821236747E-1,-1.124923706E0,-8.270416260E-1,8.590495518E0,1.612542289E0,1.566423689E0
1.903076172E0,6.840679646E-1,5.477575064E-1,7.190231532E-1,-3.662959508E-1,-1.335237776E0,-8.364780971E-1,8.650009155E0,1.866326468E0,1.219264439E0
1.922760010E0,1.198513508E-1,6.028114557E-1,9.791988879E-2,-3.119703020E-1,-1.419697353E0,-8.261304583E-1,9.320726667E0,1.855381557E0,1.196350098E0
1.942474366E0,-2.485990524E-2,3.838833570E-1,-9.054663032E-1,-2.264447893E-1,-1.351826259E0,-8.002580915E-1,9.881995065E0,1.889925276E0,1.317428589E0
1.962158204E0,2.989220619E-2,2.230292559E-1,-1.177949637E0,-1.908329555E-1,-1.248949323E0,-7.663203648E-1,1.005985369E1,2.099591936E0,1.546587263E0
1.981872559E0,-7.191419601E-2,4.042577744E-1,-1.182019711E0,-2.074214390E-1,-1.128725324E0,-7.307085310E-1,9.981528146E0,2.411178589E0,1.793873378E0
2.001556397E0,-3.369357586E-1,6.459527016E-1,-1.314870238E0,-2.445504325E-1,-1.008656093E0,-7.194497245E-1,9.695251465E0,2.660520281E0,1.792848860E0
2.021270752E0,-1.024312019E0,5.350604057E-1,-1.758382201E0,-2.489645822E-1,-9.368286133E-1,-7.357308524E-1,9.339882987E0,2.636921474E0,1.231578282E0
2.040985108E0,-1.559592605E0,5.117150545E-1,-1.989089012E0,-2.463749477E-1,-9.203927176E-1,-7.635825021E-1,9.025900705E0,2.688905988E0,9.863433838E-1
2.060668946E0,-1.263961792E0,6.218494177E-1,-1.173334628E0,-2.821393694E-1,-1.012004307E0,-7.894526890E-1,8.631879534E0,3.156803676E0,8.320901053E-1
2.080383301E0,-9.233498573E-1,5.323016644E-1,-1.338697821E-1,-3.215528216E-1,-1.179404122E0,-8.387560163E-1,8.147909982E0,3.379124233E0,6.501290458E-1
2.100067139E0,-1.206986666E0,1.824630499E-1,1.565869153E-1,-3.255135672E-1,-1.252750942E0,-9.198717390E-1,8.165012905E0,3.528246198E0,5.461534773E-1
2.119781495E0,-1.106035233E0,-1.290608644E-1,2.674169242E-1,-2.615966797E-1,-1.172252110E0,-9.790714809E-1,8.942103795E0,3.361336844E0,7.465798514E-1
2.139465332E0,-5.202687979E-1,-1.384227276E-1,1.168318719E0,-1.862640381E-1,-9.249572754E-1,-1.044965472E0,9.569381714E0,3.420163836E0,9.740317208E-1
2.159179688E0,4.767237902E-1,-2.091945410E-1,2.341616213E0,-1.526336670E-1,-6.495099749E-1,-1.083160400E0,9.944588797E0,3.721834455E0,1.233973912E0
2.178863526E0,1.062143087E0,-8.137737513E-1,3.022426069E0,-1.757638114E-1,-4.328068324E-1,-1.124404907E0,9.767759051E0,4.181180682E0,1.306828090E0
2.198577881E0,2.008650541E0,-2.034374595E0,2.744817495E0,-2.250714983E-1,-3.815198626E-1,-1.168531145E0,9.150054932E0,4.578959874E0,1.017813546E0
2.218261719E0,3.986738920E0,-2.710875750E0,3.319643259E0,-2.501831055E-1,-5.301993234E-1,-1.174621582E0,8.659927368E0,4.656598772E0,2.732151576E-1
2.237976075E0,6.019035697E0,-2.502893925E0,4.618327022E0,-2.148786272E-1,-7.507106236E-1,-1.152097430E0,8.585366385E0,4.639151437E0,-6.680494036E-1
2.257659913E0,8.578690410E0,-1.327874064E0,5.716867447E0,-1.733311244E-1,-9.097420829E-1,-1.137793405E0,8.526192801E0,4.678486415E0,-8.951546805E-1
2.277374268E0,1.371769762E1,1.276047468E0,7.825451016E0,-1.447208949E-1,-9.815695626E-1,-1.146922520E0,8.341153826E0,5.016074044E0,-1.037098476E0
2.297058106E0,2.020544815E1,5.716534853E0,7.886995435E0,-1.292005266E-1,-1.013068063E0,-1.169446673E0,8.078822545E0,5.424795968E0,-1.255652291E0
2.316802979E0,2.522565746E1,9.813171625E0,5.398869038E0,-1.045488630E-1,-1.146379743E0,-1.213121687E0,7.428623744E0,5.588287354E0,-1.723207746E0
2.336486817E0,2.618164587E1,9.355919361E0,3.505463183E0,-9.374128069E-2,-1.455614362E0,-1.288301740E0,6.685054234E0,5.621804374E0,-2.282424927E0
2.356201172E0,2.737451077E1,7.850746989E0,1.792450696E0,-1.255449568E-1,-1.718728202E0,-1.391782488E0,6.414849418E0,5.884480068E0,-2.323811122E0
2.375885010E0,2.928698397E1,8.496041179E0,1.656060517E-1,-2.369428362E-1,-1.785539900E0,-1.456915719E0,6.701130458E0,6.177599226E0,-1.517647879E0
2.395568848E0,2.857764959E1,1.212193418E1,-4.002537102E0,-3.839481899E-1,-1.833476475E0,-1.496786935E0,6.683685303E0,6.203253610E0,-1.017602103E0
2.415283204E0,2.408925343E1,1.699776101E1,-1.065029860E1,-5.250200544E-1,-1.888565063E0,-1.570445469E0,6.189455305E0,6.102693830E0,-9.875030518E-1
2.434967041E0,1.778078556E1,1.889527130E1,-1.524275899E1,-6.692897252E-1,-2.023550851E0,-1.602401733E0,6.081030709E0,6.030528477E0,-1.101058960E0
2.454681397E0,1.068282747E1,2.029087162E1,-1.644972372E1,-8.564714704E-1,-2.066922869E0,-1.595099313E0,6.289328439E0,6.200175694E0,-5.808301653E-1
2.474365235E0,6.430921316E0,1.909701443E1,-1.702218056E1,-1.090523856E0,-2.165383475E0,-1.471830096E0,6.936100551E0,6.426254272E0,3.135768345E-1
2.494079590E0,4.206238270E0,1.608924150E1,-1.588739991E1,-1.355468750E0,-2.279517038E0,-1.279170445E0,7.334224156E0,6.325016567E0,1.191220965E0
2.513763428E0,9.646863937E-1,1.404466105E1,-1.283009648E1,-1.519217355E0,-2.581290109E0,-9.819597517E-1,7.698486328E0,5.598890032E0,1.023967198E0
2.533477784E0,-1.525804996E0,1.208630228E1,-1.354702044E1,-1.570656913E0,-2.927045550E0,-5.735081264E-1,8.594940186E0,4.730477469E0,9.449571882E-1
2.553161622E0,-2.236040831E0,1.238350201E1,-1.413001680E1,-1.593787057E0,-3.221363613E0,-2.458844866E-2,1.044053214E1,4.418546404E0,1.524699620E0
2.572875977E0,-1.784160018E0,1.338607025E1,-1.322916365E1,-1.568677630E0,-3.331998553E0,4.980010986E-1,1.203643581E1,4.729110718E0,2.623977661E0
2.592559815E0,-4.963647127E-1,1.434766459E1,-1.284792924E1,-1.509022304E0,-3.135225568E0,9.341474261E-1,1.424491664E1,5.722019741E0,3.399012974E0
2.612274170E0,7.355097532E-1,1.559576678E1,-1.224022341E1,-1.571875436E0,-2.624509539E0,1.418690273E0,1.854763794E1,7.798132760E0,5.249394008E0
2.631988526E0,1.474291742E0,1.641085339E1,-1.355001044E1,-1.719486782E0,-2.065093994E0,2.088585990E0,2.438709804E1,1.121568298E1,5.994328090E0
2.651672364E0,1.918690860E0,1.677246571E1,-1.377321911E1,-1.738505772E0,-1.424412319E0,2.935930525E0,3.006682696E1,1.536722892E1,4.423389980E0
2.671386719E0,1.968193173E0,1.737493944E1,-1.112442756E1,-1.662728446E0,-9.625483922E-1,3.831512451E0,3.308454895E1,1.702914865E1,2.133510045E0
2.691070557E0,2.805430114E0,1.768493462E1,-1.196521091E1,-1.516174316E0,-7.338191441E-1,4.688291277E0,3.391499329E1,1.501733616E1,1.099557059E0
2.710784913E0,3.381508291E0,1.892831612E1,-1.131140423E1,-1.077893938E0,-3.095397949E-1,5.264443534E0,3.607627433E1,1.367418998E1,-6.560777937E-1
2.730468750E0,4.246496260E0,1.904310226E1,-9.781776428E0,-8.004673549E-1,1.307686942E0,5.859928676E0,3.839078195E1,1.372686114E1,-1.812476022E0
2.750183106E0,4.396061540E0,1.781140566E1,-7.595050812E0,-9.451926095E-1,3.298054286E0,6.433347430E0,3.852109637E1,1.607762364E1,-5.142129081E0
2.769866944E0,3.416674256E0,1.722484493E1,-5.645693898E0,-1.214246477E0,4.489323207E0,6.806793213E0,3.561761475E1,1.962686157E1,-1.060946001E1
2.789581299E0,1.578350842E0,1.604580140E1,-4.397602797E0,-1.421517508E0,4.467106410E0,7.128962926E0,3.079911150E1,2.064644514E1,-1.448840550E1
2.809265137E0,-2.078208864E0,1.446492100E1,-1.619492769E0,-1.465042114E0,4.039328439E0,7.155744280E0,2.498667254E1,2.070048523E1,-1.548473685E1
2.828979493E0,-8.357227325E0,1.235728455E1,1.744377732E0,-1.299314226E0,3.456473214E0,6.839209420E0,1.945572335E1,2.009543719E1,-1.557947867E1
2.848663331E0,-1.898781919E1,9.731373787E0,2.205405593E0,-9.908447266E-1,3.031740461E0,6.680332729E0,1.696302141E1,1.645796204E1,-1.527267674E1
2.868377686E0,-2.800549698E1,6.284217000E0,-1.650817156E0,-4.618682861E-1,3.613677979E0,6.660701207E0,1.443645368E1,1.301783316E1,-1.313260542E1
2.888092041E0,-3.213772011E1,3.427242756E0,-6.389048636E0,-1.629813058E-1,4.236402239E0,6.391494751E0,1.105378723E1,1.004355294E1,-9.947974069E0
2.907775879E0,-3.212650776E1,1.731946826E0,-1.541654348E1,-2.262922015E-1,3.710769653E0,6.063088553E0,8.110626221E0,7.262860979E0,-1.008991786E1
2.927490235E0,-2.800226974E1,4.529880524E0,-2.043068266E1,2.024405343E-2,3.181788853E0,5.964170183E0,6.618355887E0,6.457382202E0,-1.049145726E1
2.947174073E0,-1.763710546E1,7.849707365E0,-9.713820636E0,4.716121129E-1,3.249814715E0,5.961584909E0,5.844347273E0,6.549728394E0,-9.184221540E0
2.966888428E0,-1.018109405E1,8.741335869E0,3.697550952E0,5.186331613E-1,3.057152884E0,5.811839512E0,5.813561576E0,6.755283901E0,-8.517608643E0
2.986572266E0,-3.311041355E0,1.189189482E1,-1.022123194E1,4.436100551E-1,3.071001325E0,5.679748535E0,6.096422468E0,7.190004621E0,-7.512387957E0
3.006286622E0,9.036478400E-1,1.412629437E1,-4.834303379E0,5.764617920E-1,3.353753226E0,5.526046753E0,5.917881557E0,7.941098894E0,-7.285964966E0
3.025970459E0,5.903498411E0,1.597876477E1,-3.980682731E0,6.852678571E-1,2.957170759E0,5.415865217E0,5.461617606E0,8.112459455E0,-8.432102748E0
3.045684815E0,6.174362302E0,2.068531322E1,-8.782344818E0,5.600280762E-1,2.318926130E0,5.290318080E0,4.721808297E0,8.369665963E0,-8.113335746E0
3.065368653E0,1.133260059E1,1.974516249E1,-1.019130874E1,2.445547921E-1,2.193679810E0,5.034042358E0,3.746000017E0,8.874838693E0,-5.475605556E0
3.085083008E0,1.082954478E1,2.099972868E1,-1.257299709E1,2.492719378E-1,1.931322370E0,4.721010481E0,3.529495239E0,9.012333461E0,-5.979069301E0
3.104766846E0,1.146446157E1,1.910670376E1,-1.311462569E1,2.345123291E-1,1.525759016E0,4.420907157E0,3.227824620E0,1.029631260E1,-6.378904070E0
3.124481202E0,1.061355877E1,1.799081039E1,-1.266414165E1,-1.074371338E-1,1.133132935E0,4.335076468E0,3.100934710E0,1.090785653E1,-4.391034807E0
3.144165040E0,8.102046967E0,1.719991636E1,-1.123974347E1,-2.153342111E-1,8.356192453E-1,4.260356358E0,3.124189104E0,1.060276794E1,-3.741862706E0
3.163848877E0,5.599365950E0,1.627553988E1,-1.141024256E1,-2.545972552E-1,1.011389596E0,4.053697859E0,2.087158203E0,9.747698103E0,-1.311061314E0
3.183593750E0,3.026304483E0,1.514075470E1,-1.197651243E1,-3.299277169E-1,1.235395159E0,3.863165719E0,5.569240025E-1,9.487758092E0,-4.076712472E-2
3.203277588E0,1.428353071E0,1.376839876E1,-1.483020544E1,-3.020782471E-1,1.675199236E0,3.670046125E0,-1.837964739E0,8.696299962E0,8.214874268E-1
3.222991944E0,3.796685934E-1,1.343196654E1,-1.646547270E1,-2.582506452E-1,2.666048322E0,3.397192819E0,-5.640640259E0,7.618913923E0,3.119923183E0
3.242675782E0,2.480481625E0,1.429647350E1,-1.229684329E1,-2.121407645E-1,4.090005057E0,3.055999756E0,-1.129916382E1,6.027110509E0,6.144136701E0
3.262380027E0,7.807197332E0,1.205735612E1,-8.580063581E-1,-3.061850412E-1,5.464649745E0,2.308033534E0,-2.079012190E1,4.386396136E0,7.137047904E0
3.282063865E0,1.339644170E1,8.486389160E0,-9.946708232E-1,-2.794036865E-1,6.146575928E0,7.369210379E-1,-3.042336164E1,1.464102609E0,3.760197231E0
3.301778221E0,1.642879415E1,3.832648575E0,-6.978000402E0,1.065499442E-2,6.377585275E0,-1.139162336E0,-3.744932120E1,-9.827728271E-1,3.789847238E-2
3.321462058E0,1.969947147E1,1.839481592E0,-6.432955742E0,7.184470040E-1,4.568913051E0,-2.139295306E0,-4.046259199E1,-3.632128034E0,-6.410369873E0
3.341176414E0,2.798437357E1,3.038020015E0,-7.243391991E0,1.308452061E0,-4.778507778E-1,-2.622924805E0,-4.060213797E1,-4.561416626E0,-1.537254987E1
3.360860252E0,3.203665972E1,6.053415537E0,-1.088955593E1,1.345278059E0,-5.822891235E0,-3.283540998E0,-3.438097491E1,-1.868281773E0,-1.840839931E1
3.380574607E0,3.282311440E1,5.581424713E0,-1.488775110E1,1.202689035E0,-6.751650129E0,-3.885718209E0,-2.462050084E1,8.050144741E-1,-8.100675310E0
3.400258445E0,3.318497753E1,-4.858894944E0,-8.146539092E0,7.875388009E-1,-3.317389352E0,-4.061641148E0,-1.729697963E1,1.183981759E0,8.741847447E0
3.419942283E0,3.256665421E1,-5.451211691E0,-7.444291234E0,3.991699219E-1,-4.568921770E0,-4.384109497E0,-1.006786019E1,3.220761980E0,-3.920743670E0
3.439656639E0,3.147529459E1,2.444493890E0,-1.289079261E1,1.185032436E0,-4.070377895E0,-4.805345808E0,-4.846108573E0,5.860541207E0,-4.662604196E0
3.459370994E0,2.785018253E1,7.149115086E0,-1.290360594E1,1.034526280E0,-2.484048026E0,-4.662907192E0,2.056557792E-1,6.362980434E0,2.876739502E0
3.479085349E0,1.863134861E1,8.567211866E0,-1.109511328E1,9.588884626E-1,-2.958243234E0,-5.131927490E0,3.721714565E0,9.965573992E0,-1.763907296E0
3.498769187E0,1.529440522E1,8.805083275E0,-1.239635730E1,1.408737183E0,-2.879111154E0,-5.539921352E0,5.746527536E0,1.283484977E1,-3.751096453E0
3.518483543E0,1.191499829E1,1.036132240E1,-1.236237812E1,1.207552229E0,-3.699665615E0,-5.329306466E0,1.138076782E1,1.198901367E1,-5.001896449E0
3.538167381E0,8.205528736E0,1.185252428E1,-7.913146496E0,1.239663260E0,-4.240665981E0,-5.646449498E0,1.175528608E1,1.364511544E1,-7.145050049E0
3.557881736E0,5.861203432E0,1.277166700E1,-1.010773849E1,1.090375628E0,-4.561466762E0,-5.652230399E0,1.343225534E1,1.237242780E1,-7.734364101E0
3.577565574E0,3.010475636E0,1.472902918E1,-1.563575149E1,9.672633580E-1,-4.463461740E0,-5.528509957E0,1.447681318E1,1.160115051E1,-7.880752563E0
3.597279930E0,3.167967796E-1,1.792418575E1,-2.020872116E1,9.701516288E-1,-3.586748396E0,-5.603535243E0,1.351126317E1,1.147254726E1,-6.706224714E0
3.616963767E0,-8.697797060E-1,1.957392502E1,-1.847937679E1,1.025549752E0,-2.868610927E0,-5.731214251E0,1.220300511E1,1.139969526E1,-6.555731637E0
3.636678123E0,2.819299698E-3,2.011903143E1,-1.563262200E1,9.730420794E-1,-2.589054653E0,-5.895571027E0,1.070834133E1,1.119926889E1,-7.064328875E0
3.656361961E0,2.411823988E0,2.102815533E1,-1.629196000E1,1.050809588E0,-2.983963013E0,-5.995550973E0,9.256083897E0,1.098857989E1,-8.079814366E0
3.676045799E0,4.493417859E0,2.092378092E1,-1.688312960E1,1.192487444E0,-4.855935233E0,-5.957504272E0,8.525166103E0,1.060619245E1,-1.128941127E1
3.695760154E0,5.888993144E0,2.065540504E1,-1.573067474E1,1.073331560E0,-7.080969674E0,-6.085340227E0,8.130124773E0,1.123039464E1,-1.349378531E1
3.715443992E0,7.099750280E0,2.092965889E1,-1.541628456E1,6.700526646E-1,-8.066489083E0,-6.457268851E0,9.822141375E0,1.297644915E1,-1.156064061E1
3.735158347E0,8.416258097E0,2.053372622E1,-1.529376078E1,-9.632873535E-2,-5.779065813E0,-6.600014823E0,1.469536700E1,1.306674412E1,-2.506112235E0
3.754872703E0,7.517930388E0,2.002741814E1,-1.232523942E1,-7.418801444E-1,-2.856739589E0,-6.337345668E0,1.966402108E1,1.103885760E1,2.900477818E-2
3.774587058E0,5.961426735E0,1.926552629E1,-9.411070347E0,-6.184561593E-1,-2.998264858E0,-5.717213222E0,2.374716187E1,8.388817923E0,-4.844223022E0
3.794270896E0,2.466168880E0,1.816709948E1,-7.325501561E0,-5.119367327E-1,-3.957308088E0,-4.777042934E0,2.533520072E1,5.252415248E0,-7.122475760E0
3.813985252E0,-3.709117293E0,1.673855305E1,-6.840775967E0,-8.292301723E-1,-6.317020961E0,-4.303152902E0,2.907870265E1,5.351259504E0,-8.385587420E0
3.833669090E0,-1.367123199E1,1.331871700E1,-5.950228810E0,-1.078654698E0,-8.053098406E0,-4.347436087E0,3.657666234E1,7.166065761E0,-9.482816424E0
3.853383445E0,-2.297521925E1,1.219062400E1,-7.315443754E0,-6.248517718E-1,-8.081859044E0,-4.236801147E0,4.850115313E1,1.053368051E1,-1.381769017E1
3.873067283E0,-3.060434198E1,1.172371984E1,-1.221820307E1,2.736249651E-1,-5.895479475E0,-2.756539481E0,6.346867807E1,1.189495414E1,-1.909929984E1
3.892751121E0,-3.203395367E1,8.932338595E0,-2.185085106E1,7.140372140E-1,-1.310315813E-1,6.154305594E-2,7.307318551E1,3.995799473E0,-1.597281320E1
3.912465476E0,-3.123308897E1,5.145171642E0,-3.459352016E1,7.534506662E-1,5.541196551E0,2.674331665E0,6.905332511E1,-2.221258981E0,-1.054720851E1
3.932179832E0,-2.375415754E1,8.431345701E0,-2.894085693E1,9.287610735E-1,5.941890172E0,4.656027658E0,5.960888236E1,3.142780849E0,-1.510439845E1
3.951863670E0,-1.397656155E1,1.145342326E1,-7.933593869E0,7.243804932E-1,3.277204241E0,5.781707764E0,4.725138201E1,8.600193569E0,-1.712271336E1
3.971547508E0,-6.333766222E0,1.323610735E1,-4.756140709E-1,2.539912633E-1,1.871512277E0,6.115589687E0,3.493628802E1,1.111375863E1,-1.609252058E1
3.991261863E0,-2.630366325E0,1.928242874E1,-1.357020283E1,3.029937744E-1,2.057782854E0,6.294100080E0,2.749819074E1,1.107100786E1,-1.429242379E1
4.010945701E0,2.110030353E0,1.900828362E1,-7.203027487E0,1.299926758E0,1.632284982E0,6.480065482E0,2.518300084E1,1.020875113E1,-1.527404567E1
4.030690574E0,8.609264493E0,2.073200750E1,-6.963316560E0,2.438241141E0,2.096132551E0,6.480065482E0,2.270294625E1,1.035616629E1,-1.580658831E1
4.050374412E0,9.425618649E0,2.688088179E1,-8.249439478E0,2.827819824E0,4.850906372E0,6.360449655E0,1.901724461E1,1.069750977E1,-1.074934605E1
4.070088767E0,1.411771035E1,2.522451401E1,-9.236141562E0,2.573072161E0,6.890583583E0,6.590090070E0,1.723493304E1,1.029870387E1,-1.066178676E1
4.089772605E0,1.495610237E1,2.473141623E1,-1.194204426E1,2.383455549E0,7.156441825E0,7.064442226E0,1.474906703E1,1.030041722E1,-1.238732256E1
4.109486961E0,1.318556213E1,2.219933939E1,-1.213348436E1,2.471112932E0,6.203183855E0,7.337903704E0,1.158564322E1,1.147254726E1,-1.664113508E1
4.129170799E0,1.048087144E1,1.964215422E1,-1.386109233E1,2.747623989E0,4.876318795E0,7.320101057E0,8.674976894E0,1.320629229E1,-1.836120387E1
4.148854637E0,7.197646260E0,1.817293739E1,-1.380755806E1,2.692990984E0,4.205357143E0,7.148899623E0,6.957648141E0,1.353874425E1,-1.532432338E1
4.168568992E0,6.010186553E0,1.736378145E1,-1.332010865E1,2.259580340E0,4.386452811E0,6.822470529E0,6.668635777E0,1.333968244E1,-1.198715428E1
4.188283347E0,5.495084405E0,1.497518802E1,-9.437967539E0,2.048963274E0,4.547304426E0,6.416909354E0,7.640681676E0,1.366974531E1,-1.166906302E1
4.207967185E0,4.016970634E0,1.271637130E1,-8.708665133E0,2.088073730E0,4.559330532E0,6.010890416E0,8.456760951E0,1.360886056E1,-1.207573591E1
4.227681541E0,2.347473145E0,1.034052944E1,-9.308789015E0,1.894954136E0,4.831730434E0,5.606547764E0,8.730043684E0,1.299970790E1,-1.080407279E1
4.247365379E0,2.437652588E0,9.203516483E0,-1.069690609E1,1.458803449E0,5.039607457E0,5.115308489E0,8.501225063E0,1.319500950E1,-9.580980573E0
4.267049217E0,7.732805490E0,7.399033070E0,-9.554582357E0,1.098292759E0,4.929127284E0,4.786902291E0,8.683528355E0,1.332908412E1,-9.464348929E0
4.286763572E0,1.602958846E1,2.197241902E0,-2.028684765E0,8.668234689E-1,4.573479789E0,4.636093140E0,8.348680769E0,1.311360386E1,-8.793287005E0
4.306447410E0,2.110860586E1,-3.168478787E0,-3.191841900E0,1.899239676E-1,4.511237008E0,4.357903617E0,6.330025809E0,1.286187090E1,-5.890829904E0
4.326192283E0,2.798198605E1,-8.065385103E0,-6.948523760E0,-3.600594657E-1,4.886518206E0,3.986282349E0,4.025776454E0,1.244390869E1,-3.470977783E0
4.345876121E0,3.250723839E1,-7.440977216E0,-9.094611406E0,-8.210100446E-1,5.615308489E0,3.519389561E0,3.804343087E-1,1.161415100E1,-2.070711408E0
4.365590476E0,3.281840801E1,-1.825210571E0,-1.149006391E1,-1.287599836E0,6.265577044E0,2.977018084E0,-5.493225098E0,1.110008022E1,-1.245389666E0
4.385274314E0,3.290703869E1,2.744321465E0,-1.413791275E1,-1.202835083E0,6.527326311E0,2.733073643E0,-1.359930856E1,8.375479562E0,-2.183925084E0
4.404988670E0,3.253497505E1,4.972827435E-1,-1.264891267E1,-7.688140869E-1,6.872017997E0,2.294943673E0,-2.393849400E1,6.521680559E0,-1.938685826E0
4.424672508E0,3.176839781E1,2.237258792E0,-1.465988016E1,-5.365883963E-1,7.906082153E0,9.463195801E-1,-3.193923514E1,6.000771659E0,-5.270727975E0
4.444356346E0,3.042134285E1,7.677215338E0,-1.507703352E1,7.639639718E-2,7.346973964E0,-1.011027745E0,-3.970329067E1,6.051731655E0,-1.172207860E1
4.464070701E0,2.346690750E1,1.045678878E1,-1.289546895E1,7.777971540E-1,3.706052508E0,-2.287214007E0,-4.466475786E1,2.795961652E0,-2.148358154E1
4.483754539E0,1.757026196E1,1.043647575E1,-1.004123425E1,1.438718523E0,-3.549462455E0,-2.773278373E0,-4.040273612E1,-9.776415144E-1,-3.360747201E1
4.503468894E0,1.253412151E1,1.033693933E1,-8.919895172E0,2.376604353E0,-8.883241926E0,-3.539812360E0,-3.241944231E1,1.187399728E0,-3.114281791E1
4.523152732E0,7.924257278E0,1.142944670E1,-7.953728437E0,2.757208688E0,-8.501879011E0,-4.265561785E0,-2.334165737E1,4.190752302E0,-1.205726842E1
4.542867088E0,4.228127718E0,1.253647876E1,-7.456039190E0,2.080766950E0,-4.847566877E0,-4.253997803E0,-1.488533238E1,4.967503139E0,5.209372384E0
4.562550926E0,9.242148399E-1,1.370194268E1,-8.462880731E0,1.622246878E0,-5.754564558E0,-4.883111136E0,-8.775674003E0,9.044488089E0,-4.014460972E0
4.582265281E0,-1.013452768E0,1.474677706E1,-1.118078446E1,2.122767857E0,-6.510443551E0,-5.906529018E0,-5.282876151E0,1.282869393E1,-9.067592076E0
4.601979637E0,-1.415675879E0,1.633834600E1,-1.375487590E1,2.245731899E0,-4.673015050E0,-5.785692487E0,1.348035540E0,1.142158944E1,-4.166608538E-1
4.621693992E0,-1.415280461E0,1.784292698E1,-1.392916012E1,1.489240374E0,-4.944501604E0,-5.910025460E0,7.655388968E0,1.394952393E1,-1.571690151E0
4.641377830E0,-6.488915682E-1,1.834026098E1,-1.217277837E1,1.374038696E0,-4.242039272E0,-6.935265677E0,9.270108904E0,2.009680612E1,-2.672337123E0
4.661092185E0,9.073395729E-1,1.855188894E1,-1.220788932E1,1.185945783E0,-3.668925694E0,-6.941353934E0,1.478874207E1,1.869585964E1,-2.298841204E0
4.680776023E0,2.291825235E0,1.832924891E1,-1.234117079E1,1.198268345E0,-4.135820661E0,-6.684167045E0,1.784442575E1,1.911586652E1,-6.325890677E0
4.700490379E0,3.345050693E0,1.854760981E1,-1.141580558E1,1.086726597E0,-4.044202532E0,-6.406590053E0,1.780749076E1,1.784146554E1,-5.653459821E0
4.720174217E0,5.749709368E0,1.889688492E1,-1.262565231E1,1.059940883E0,-4.781515939E0,-6.091426304E0,1.690658569E1,1.620349339E1,-7.762407575E0
4.739858055E0,8.424502134E0,1.941430426E1,-1.342938328E1,8.688005720E-1,-5.599336897E0,-5.749171666E0,1.518378557E1,1.484461321E1,-8.846984863E0
4.759572410E0,8.912312031E0,1.958592510E1,-9.696007013E0,5.521131243E-1,-6.236975534E0,-5.710364205E0,1.328792027E1,1.472490147E1,-9.408595494E0
4.779256248E0,8.437145352E0,1.947903633E1,-9.635593414E0,1.978389195E-1,-6.135164533E0,-5.863307408E0,1.335290745E1,1.470540510E1,-9.625438145E0
4.798970603E0,6.349666119E0,1.846537399E1,-8.060945272E0,-6.619698661E-2,-4.614733015E0,-5.957201277E0,1.348321751E1,1.341219657E1,-6.640553066E0
4.818654441E0,2.599753380E0,1.782524157E1,-6.521405578E0,-8.400399344E-2,-3.410675049E0,-6.067685808E0,1.259907314E1,1.236866760E1,-6.676125663E0
4.838368797E0,-5.078901172E0,1.654847002E1,-5.826339006E0,-1.170283726E-1,-3.395305089E0,-6.084426880E0,1.130757141E1,1.106211635E1,-7.465530396E0
4.858052635E0,-1.784961009E1,1.452839661E1,-6.438922405E0,-1.850498744E-1,-4.302455357E0,-6.002855573E0,1.029243033E1,1.065099444E1,-8.943093436E0
4.877766990E0,-2.781600761E1,9.579292536E0,-9.059714079E0,-1.409149170E-1,-5.895632063E0,-5.688753401E0,1.230766296E1,1.062466213E1,-1.059817069E1
4.897481346E0,-3.209517574E1,9.863258123E0,-1.572206664E1,-6.508745466E-1,-6.442722866E0,-4.950526646E0,1.875524902E1,8.877232143E0,-7.577715193E0
4.917195701E0,-3.181272507E1,6.561619520E0,-2.677825212E1,-1.495474679E0,-5.460852487E0,-4.248367310E0,2.494186619E1,4.664123535E0,-3.239761353E0
4.936879539E0,-3.189870977E1,6.562104106E0,-3.617221355E1,-1.477975028E0,-4.685797555E0,-4.070920672E0,2.894189453E1,5.823538644E-1,-5.299802508E0
4.956563377E0,-2.485932159E1,1.365145993E1,-2.408615446E1,-7.318376814E-1,-4.342479161E0,-3.569488525E0,3.455390494E1,-3.294204712E0,-9.266653878E0
4.976277732E0,-1.147448254E1,1.634957075E1,-2.464204133E0,9.846278599E-2,-3.869044713E0,-2.677865165E0,4.308991786E1,-3.153972081E0,-1.183905247E1
4.995961570E0,-6.905615330E-1,1.801091003E1,-6.528493047E0,5.735713414E-1,-3.196252005E0,-1.457981655E0,5.286236354E1,1.547901699E0,-1.392679269E1
5.015675926E0,4.899331212E0,2.456175661E1,-1.495211720E1,8.053436279E-1,-1.548137120E0,2.869175502E-1,6.095579093E1,6.773760114E0,-1.764533343E1
5.035359764E0,8.064044356E0,2.276669645E1,6.813919544E-2,1.078199114E0,1.558170864E0,2.478781564E0,6.306474086E1,7.822756086E0,-1.757316371E1
5.055074119E0,9.058516502E0,2.366776085E1,-7.699977875E0,1.253361293E0,3.143591745E0,4.411017282E0,5.892585100E1,4.836850848E0,-1.692296709E1
5.074757957E0,1.062652993E1,2.273209953E1,-7.436851978E0,1.659227644E0,2.409471784E0,5.442343576E0,5.067782811E1,7.573760986E0,-1.924363273E1
5.094472312E0,8.630828261E0,2.252581358E1,-1.126310229E1,2.001331874E0,1.913667951E0,5.773642404E0,4.026612854E1,1.143321664E1,-1.875863647E1
5.114156150E0,6.548088193E0,2.174967194E1,-1.415268302E1,1.976220267E0,2.064784459E0,5.944543021E0,3.267205811E1,1.292685590E1,-1.675879560E1
5.133870506E0,6.378744841E0,2.189907646E1,-1.294316220E1,1.848691668E0,1.978801182E0,6.183615548E0,2.774205671E1,1.207349505E1,-1.387378148E1
5.153554344E0,6.786981463E0,2.159137201E1,-1.257971406E1,2.095533098E0,1.747183664E0,6.344473703E0,2.369995989E1,1.061097717E1,-1.269480678E1
5.173268699E0,6.341925859E0,1.933743334E1,-9.900884390E0,2.638508388E0,2.478258405E0,6.366082328E0,1.946632603E1,1.023577445E1,-1.134310913E1
5.192983055E0,4.664312601E0,1.656212616E1,-8.823046207E0,2.960826329E0,3.799795968E0,6.394539969E0,1.583569336E1,1.016018241E1,-9.918561663E0
5.212697410E0,2.494936705E0,1.369332981E1,-9.292151451E0,2.809561593E0,4.707249233E0,6.436237880E0,1.273827689E1,9.937866211E0,-9.413040161E0
5.232381248E0,4.554934502E-1,1.184644270E1,-9.218802929E0,2.576873779E0,5.052852086E0,6.434108189E0,9.677124023E0,9.943337577E0,-9.752336775E0
5.252065086E0,3.419337273E-1,1.032077670E1,-7.965515494E0,2.604575021E0,4.901277815E0,6.455411639E0,7.750132969E0,9.874932425E0,-1.132942636E1
5.271779441E0,2.267852545E0,8.227374792E0,-6.855306506E0,2.833147321E0,4.297271729E0,6.464996338E0,6.779796055E0,1.041841997E1,-1.271738107E1
5.291463279E0,3.545742393E0,5.760482430E0,-6.712592602E0,2.850801740E0,3.576699393E0,6.284055437E0,5.928142003E0,1.115651158E1,-1.245504325E1
5.311177635E0,4.635972977E0,3.532113433E0,-7.150685430E0,2.619336809E0,3.284208025E0,5.982585362E0,5.549861363E0,1.112197004E1,-1.013814436E1
5.330861472E0,6.138867497E0,3.327622771E0,-6.628225088E0,2.523463658E0,3.411126273E0,5.634094238E0,5.752683367E0,1.102278137E1,-8.858269828E0
5.350575828E0,7.664027214E0,7.559535742E0,-6.167348385E0,2.572463989E0,3.635589600E0,5.274642944E0,6.287617275E0,1.067630441E1,-8.812441145E0
5.370259666E0,1.021439719E1,1.056045675E1,-9.861117125E0,2.409173148E0,3.969022478E0,4.885973249E0,6.334128244E0,1.041568211E1,-7.846206665E0
5.389974021E0,1.501063609E1,1.073372030E1,-1.384991574E1,2.003917149E0,4.289358956E0,4.488479614E0,6.369703020E0,1.071871948E1,-6.628928048E0
5.409657859E0,2.014155483E1,1.642368102E1,-1.100520992E1,1.716445923E0,4.230008807E0,4.267966134E0,7.772702898E0,1.106963893E1,-7.679637364E0
5.429372215E0,2.570087242E1,1.806671500E1,-3.341047347E0,1.631530762E0,4.249943324E0,4.153376988E0,9.245821272E0,1.168118504E1,-8.196101597E0
5.449056053E0,2.737720490E1,9.451577902E0,9.854083657E-1,1.098133632E0,4.913759504E0,4.088851929E0,8.906871251E0,1.207075718E1,-4.690307617E0
5.468800926E0,2.592286253E1,5.215172291E0,-3.429479063E0,4.840894427E-1,5.018458775E0,4.063895089E0,7.737819127E0,1.237037441E1,-3.767170497E0
5.488484764E0,2.086972380E1,6.040821552E0,-8.241834879E0,-4.519435338E-2,4.914670672E0,4.007888794E0,5.578589303E0,1.189118958E1,-3.804794312E0
5.508168601E0,1.872942972E1,8.705051184E0,-3.498402894E0,-5.403921945E-1,5.300295149E0,3.845969064E0,2.174719674E0,1.129982213E1,-1.707815988E0
5.527882957E0,1.804881096E1,8.123120308E0,-4.645773172E-1,-9.308864049E-1,5.920279367E0,3.539784023E0,-2.997443063E0,1.101730783E1,-1.424959455E0
5.547566795E0,1.568603826E1,5.180938244E0,-2.355534434E-1,-9.578247070E-1,6.773858207E0,3.276051113E0,-1.168668256E1,9.951204572E0,-1.590499878E0
5.567281150E0,1.032999933E1,2.799443483E0,-3.559414506E0,-4.775412423E-1,6.645418440E0,3.457757132E0,-2.418373108E1,8.324175153E0,-2.909364973E0
5.586964988E0,4.007866502E0,3.489125729E0,-1.531849325E0,-3.679700579E-1,7.558050973E0,3.049150739E0,-3.348417882E1,4.054286412E0,-6.016010829E0
5.606679344E0,1.121005893E0,2.762955308E0,-3.801550448E0,6.983598982E-1,7.827863421E0,5.258462088E-1,-4.486484637E1,4.408968244E0,-1.209659903E1
5.626363181E0,-2.196892500E0,2.059960723E0,-3.071947634E0,2.412216187E0,4.979045323E0,-1.832345145E0,-5.326951817E1,2.988180978E0,-2.208042036E1
5.646077537E0,-3.367475510E0,1.652949095E0,-1.880072027E0,2.871344430E0,-2.134946551E0,-3.048570905E0,-4.924965559E1,-3.462568011E-1,-3.314779009E1
5.665761375E0,-3.975989342E0,1.362907767E0,-1.759044439E0,2.952457973E0,-9.204193115E0,-4.273478917E0,-3.907703509E1,3.850782122E0,-3.327878680E1
5.685475730E0,-5.540988326E0,1.272872210E0,-2.813641191E0,2.945151193E0,-1.036806815E1,-5.669584002E0,-2.735741752E1,9.110497611E0,-1.510132272E1
5.705159568E0,-7.612761378E0,1.389210463E0,-1.960920125E0,2.727837699E0,-6.433898926E0,-5.899682181E0,-1.483402797E1,9.781901768E0,4.151820592E0
5.724873924E0,-7.761038542E0,1.149336100E0,-1.680736184E0,2.239643642E0,-7.466288975E0,-5.542203631E0,-4.402491978E0,1.164801025E1,-3.507572719E0
5.744588279E0,-7.154119253E0,1.208517194E0,-5.389016122E-1,1.826627459E0,-8.865286691E0,-5.683122907E0,1.353169033E0,1.769576372E1,-1.069120571E1
5.764302635E0,-6.636537075E0,1.511446953E0,-4.535779357E-2,7.835802351E-1,-5.758976528E0,-5.736389160E0,6.222632272E0,1.643060085E1,5.090005057E0
5.783986472E0,-6.444525003E0,1.793461502E0,-1.137426943E-1,4.850006104E-1,-4.743931362E0,-6.734994071E0,8.469076974E0,1.624316842E1,1.367364066E0
5.803670310E0,-6.564638376E0,2.361595988E0,-7.762438804E-1,4.665854318E-1,-4.367433820E0,-7.433809553E0,1.087935093E1,1.723060608E1,-4.155373710E0
5.823384666E0,-7.145579338E0,3.286947548E0,-1.648987889E0,7.091849191E-2,-3.570316860E0,-7.277372088E0,1.246157837E1,1.605470930E1,-1.766305106E0
5.843068504E0,-7.794765949E0,4.478469610E0,-2.502676010E0,-8.886936733E-2,-4.895047869E0,-7.424680437E0,1.102779497E1,1.674253191E1,-7.712474278E0
5.862782859E0,-8.297872305E0,5.522064924E0,-3.289486289E0,-5.233459473E-1,-5.888783046E0,-7.409613473E0,1.090021842E1,1.644906834E1,-8.654078892E0
5.882466697E0,-8.436857700E0,6.199584961E0,-4.040885270E0,-8.806675502E-1,-6.299065726E0,-7.238867623E0,1.207850429E1,1.751414490E1,-8.520348685E0
5.902181053E0,-7.762849808E0,5.627193093E0,-4.646190524E0,-1.286688668E0,-6.429177420E0,-6.930092948E0,1.341070775E1,1.804702759E1,-9.040913173E0
5.921864890E0,-6.733162642E0,4.534858942E0,-4.564916015E0,-1.800600324E0,-5.598730905E0,-6.592102051E0,1.398702785E1,1.706369455E1,-7.610549927E0
5.941579246E0,-5.596058369E0,3.419278979E0,-3.644760072E0,-2.086850848E0,-4.264563424E0,-6.339477539E0,1.320549011E1,1.550849043E1,-6.989083426E0
5.961263084E0,-4.438453197E0,2.541668296E0,-2.287328124E0,-2.003912789E0,-3.475806100E0,-6.093100412E0,1.167765154E1,1.388077218E1,-7.628677368E0
5.980977439E0,-3.482959151E0,2.088460684E0,-6.947736517E-1,-1.860406058E0,-3.195643834E0,-5.936505999E0,9.884048462E0,1.263031660E1,-8.865794591E0
6.000661277E0,-2.784945369E0,2.356566906E0,8.696343303E-1,-1.757991246E0,-2.975895473E0,-5.908048357E0,8.432137626E0,1.213163757E1,-8.647238595E0
6.020345115E0,-2.245114326E0,3.501331568E0,1.870585948E0,-1.717054095E0,-2.604422433E0,-5.803499494E0,8.845306396E0,1.167468916E1,-7.955657959E0
6.040089988E0,-1.825089693E0,4.510065079E0,2.140453160E0,-1.670333862E0,-2.058092390E0,-5.516638620E0,1.041727339E1,1.059524754E1,-7.337609427E0
6.059773826E0,-1.464064837E0,4.900123835E0,1.824961513E0,-1.452715193E0,-1.434459141E0,-5.259756906E0,1.120804269E1,9.213106428E0,-7.384809222E0
6.079488181E0,-1.238442183E0,5.096421242E0,1.246956438E0,-8.290775844E-1,-1.034678868E0,-4.989942278E0,1.180864389E1,7.959572928E0,-8.091783796E0
6.099172019E0,-1.319184184E0,5.141044617E0,3.151657581E-1,-3.991677420E-1,-1.204971313E0,-4.678425380E0,1.268287223E1,7.484837123E0,-7.900591169E0
6.118886375E0,-1.339812875E0,4.835230350E0,-7.082762718E-1,-6.091788156E-1,-1.443285261E0,-4.498400007E0,1.362071446E1,1.060687474E1,-6.864242554E0
6.138570213E0,-1.245334029E0,4.587109327E0,-9.831570387E-1,-7.153996059E-1,-1.489549909E0,-4.656666347E0,1.473983111E1,1.535320827E1,-8.985504150E0
6.158284568E0,-7.389558554E-1,4.526464939E0,-5.617709458E-1,-5.413077218E-1,-1.553159441E0,-4.765474592E0,1.730094256E1,1.689404951E1,-1.248309108E1
6.177968406E0,4.146476984E-1,4.453245163E0,3.664592654E-1,3.224705287E-1,-1.830736433E0,-4.714948382E0,2.111422294E1,1.802787345E1,-1.592356001E1
6.197682762E0,1.660697341E0,4.489931107E0,1.451931030E0,1.777925764E0,-8.042776925E-1,-4.672494071E0,2.514195469E1,2.422304208E1,-1.222109767E1
6.217366599E0,2.632200420E0,4.266551256E0,1.821812063E0,1.716140747E0,1.265679496E0,-4.338915144E0,2.968341500E1,2.625161525E1,-5.997883388E0
6.237080955E0,3.134585977E0,3.942544699E0,1.630125403E0,5.825478690E-1,3.297600882E0,-3.785125732E0,3.103100804E1,1.891441345E1,-1.336371286E0
6.256764793E0,3.549617052E0,3.634290695E0,1.294952869E0,1.271318708E0,4.738442557E0,-2.948285784E0,3.044476754E1,1.398270089E1,-2.807780675E0
6.276479148E0,3.942565441E0,3.403141022E0,1.147132725E0,3.293191092E0,4.917258126E0,-2.396783011E0,2.651554217E1,1.349906921E1,-1.049180167E1
6.296162986E0,4.455997705E0,2.923699617E0,1.272641063E0,3.993068150E0,5.312471662E0,-2.170948574E0,2.245668684E1,1.578108651E1,-7.962156023E0
6.315877342E0,5.052142620E0,2.145152092E0,1.426402599E0,3.300798689E0,5.378210885E0,-1.696448190E0,2.204146467E1,1.738759722E1,-5.496808733E0
6.335591697E0,5.611771584E0,1.239925385E0,1.512279660E0,2.953371320E0,7.664725167E0,-8.895895822E-1,2.104923793E1,1.602187456E1,-2.402474540E0
6.355275535E0,5.960993290E0,3.861649036E-1,1.440089256E0,3.717468262E0,9.790843419E0,-8.004324777E-3,1.920638602E1,1.327675520E1,-3.111160278E0
6.374989890E0,6.212550163E0,-2.999191284E-1,1.499262065E0,4.248125349E0,1.001287624E1,6.494162423E-1,1.504286630E1,1.092496381E1,-6.488693237E0
6.394673728E0,6.499928474E0,-7.346611023E-1,1.633573025E0,3.528769357E0,1.004893930E1,1.042197091E0,9.519446237E0,1.136754717E1,-3.871488299E0
6.414388084E0,6.740460515E0,-1.044234514E0,1.742735982E0,2.888846261E0,8.960848127E0,1.807813372E0,7.193309239E0,1.075292315E1,-4.377009801E0
6.434071922E0,6.907993555E0,-1.359169722E0,1.681002468E0,2.670011248E0,7.519544329E0,2.389447893E0,5.102486747E0,9.725463867E0,-6.451758248E0
6.453786277E0,7.070241928E0,-1.718248606E0,1.679336250E0,2.219100952E0,6.668398176E0,2.587437221E0,3.206961496E0,9.041407994E0,-2.750662667E0
6.473470115E0,6.981080770E0,-1.955230474E0,1.623777896E0,1.791475568E0,5.541349139E0,2.808556693E0,3.171733311E0,8.349485125E0,-2.833092826E0
6.493184471E0,6.689731121E0,-1.863915443E0,1.535438895E0,1.454238892E0,4.512457711E0,3.057976859E0,2.872800555E0,7.813866752E0,-1.945866176E0
6.512868308E0,6.173761368E0,-1.579820871E0,1.468001127E0,1.158706665E0,3.096568516E0,3.211380005E0,1.657917568E0,7.382912772E0,-2.762292045E0
6.532552146E0,5.532553077E0,-1.386851311E0,1.047962397E0,8.774784633E-1,1.954302107E0,3.139397757E0,5.858285086E-2,7.105185372E0,-1.570661272E0
6.552266502E0,4.992589355E0,-1.037927866E0,6.707547605E-1,6.336800711E-1,9.792785645E-1,2.981432234E0,1.378522600E-2,6.491585868E0,-1.241631644E0
6.571950340E0,4.844132662E0,-3.240218163E-1,8.218977749E-1,4.051077706E-1,5.490613665E-1,2.793184553E0,7.303314209E-1,6.038737706E0,-2.275150844E-1
6.591664695E0,4.700978756E0,3.731846809E-1,1.222174704E0,1.378784180E-1,4.492274693E-1,2.534020560E0,1.449962071E0,5.897482736E0,4.910866874E-1
6.611379051E0,4.289841175E0,7.545390129E-1,1.152312636E0,-1.474631173E-1,5.542384556E-1,2.238483974E0,1.901436942E0,5.788371495E0,7.513732910E-1
6.631093406E0,3.775441110E0,1.105859280E0,1.185411930E0,-4.393419538E-1,6.776537214E-1,1.919213431E0,2.111443656E0,5.788027082E0,5.557294573E-1
6.650807762E0,3.184102654E0,1.702452898E0,1.162349254E0,-7.481166295E-1,6.767425537E-1,1.559151786E0,1.990709577E0,6.069521223E0,3.071594238E-2
6.670491599E0,2.461392343E0,2.214867353E0,9.653098881E-1,-1.064043318E0,5.269949777E-1,1.105501447E0,1.487245832E0,6.697828020E0,-6.068267822E-1
6.690175437E0,1.668823481E0,2.655493498E0,1.019595891E0,-1.376929147E0,2.398332868E-1,5.471518380E-1,9.252864293E-1,7.594624111E0,-1.230342320E0
6.709889793E0,1.007503152E0,2.942016602E0,1.779318899E0,-1.641721453E0,-1.296626500E-1,-8.150809152E-2,4.803096226E-1,8.405920846E0,-1.830945696E0
6.729573631E0,3.623068333E-3,2.975484371E0,1.648030996E0,-1.813533238E0,-5.512019566E-1,-7.717982701E-1,1.293879918E-1,9.244914464E0,-2.432573591E0
6.749287986E0,-1.250515640E0,2.460570335E0,9.806396365E-1,-1.888560704E0,-1.110615322E0,-1.331366403E0,4.471326556E-1,9.213108608E0,-3.085510254E0
6.768971824E0,-2.294706583E0,1.984016895E0,7.100794911E-1,-1.817640032E0,-1.708382743E0,-1.708775112E0,1.146580287E0,8.551280430E0,-3.443270002E0
6.788686180E0,-2.872656941E0,1.838259101E0,1.213681698E0,-1.652683803E0,-2.235844203E0,-1.938718523E0,2.001652309E0,7.800872803E0,-3.254132952E0
6.808370017E0,-3.442130566E0,1.930346251E0,1.438971132E0,-1.429735456E0,-2.530308315E0,-2.075077602E0,2.896399362E0,7.116128104E0,-2.540655954E0
6.828053855E0,-4.419778228E0,1.391616821E0,1.215154260E0,-1.096762521E0,-2.439004081E0,-2.180232457E0,3.780543736E0,6.671146938E0,-1.598709106E0
6.847768211E0,-5.092474103E0,5.276079178E-1,5.688944757E-1,-6.936362130E-1,-1.877304077E0,-2.301520211E0,4.452290126E0,6.577431815E0,-4.559892927E-1
6.867452049E0,-4.975280285E0,3.535556793E-2,5.797029734E-1,-2.730102539E-1,-1.000137329E0,-2.442744664E0,4.893166678E0,7.011468070E0,7.472664969E-1
6.887166404E0,-4.380289078E0,2.947139740E-2,7.801817656E-1,1.240299770E-1,-4.733276367E-2,-2.594312395E0,5.170891898E0,8.241744995E0,1.715552194E0
6.906880760E0,-4.185504436E0,-1.280554533E-1,6.336604357E-1,4.066292899E-1,7.723127093E-1,-2.718494960E0,5.331645421E0,9.649193900E0,2.144792829E0
6.926595115E0,-3.818955779E0,-2.810134888E-1,9.327850938E-1,5.842219761E-1,1.403557914E0,-2.821517944E0,5.390474592E0,1.058054025E1,2.195759365E0
6.946278953E0,-3.123220205E0,-2.585928440E-1,2.415141702E0,6.995762416E-1,1.888098580E0,-2.932612828E0,5.377134051E0,1.118387713E1,1.904695783E0
6.965993308E0,-2.039068818E0,-3.798457384E-1,3.145029306E0,7.726244245E-1,2.194743565E0,-3.066835676E0,5.177732195E0,1.169178990E1,1.469288417E0
6.985677146E0,-1.289278984E0,-7.924231291E-1,3.002811968E0,8.408006941E-1,2.245725359E0,-3.219018119E0,4.693075997E0,1.206289237E1,7.835213797E-1
7.005391502E0,-1.145619988E0,-1.285312772E0,2.103149593E0,8.957410540E-1,1.943494524E0,-3.331935338E0,4.258361816E0,1.214463588E1,-2.332632882E-2
7.025075340E0,-7.769660950E-1,-1.232735038E0,1.967728972E0,9.190194266E-1,1.457883562E0,-3.406350272E0,3.861264910E0,1.222296361E1,-2.979736328E-1
7.044789695E0,-3.602397442E-2,-9.569537640E-1,2.580869675E0,9.062369210E-1,9.891706194E-1,-3.443939209E0,3.683750698E0,1.249077061E1,-7.941763742E-2
7.064473533E0,3.376313448E-1,-9.434077740E-1,2.888175249E0,8.229936872E-1,5.925881522E-1,-3.396000453E0,4.040485927E0,1.268640573E1,5.704345703E-1
7.084157371E0,-5.889773369E-2,-5.402021408E-1,2.415089488E0,6.939435686E-1,3.163822719E-1,-3.284606934E0,4.649636405E0,1.297952706E1,1.433718000E0
7.103871726E0,-1.225795746E-1,2.742140293E-1,1.541894376E0,5.397862026E-1,9.556579590E-2,-3.127404349E0,5.208857945E0,1.316285488E1,2.160186768E0
7.123586082E0,8.946110010E-1,1.647136450E0,7.643313408E-1,3.886696952E-1,-1.989048549E-1,-2.928806850E0,5.499925886E0,1.309650094E1,2.240565709E0
7.143269920E0,2.366311908E0,1.906930208E0,6.651134491E-1,2.661655971E-1,-6.011156355E-1,-2.709211077E0,5.465379987E0,1.295934623E1,1.969676426E0
7.162953758E0,2.693767190E0,1.467633009E0,8.862815499E-1,1.492898124E-1,-1.064660209E0,-2.462979998E0,5.422284807E0,1.280133057E1,1.611232213E0
7.182698631E0,2.418159962E0,2.031435132E0,6.126864552E-1,3.211103167E-2,-1.518458775E0,-2.219192505E0,5.395608085E0,1.269872393E1,1.406014579E0
7.202382469E0,2.125906706E0,2.226479530E0,3.278729320E-1,-8.765302386E-2,-1.901500157E0,-1.976307460E0,5.483849662E0,1.242578343E1,1.444318499E0
7.222096824E0,2.119385242E0,1.821673632E0,-3.433490396E-1,-1.929626465E-1,-2.164012364E0,-1.732363020E0,5.715744019E0,1.187409101E1,1.568137033E0
7.241780662E0,1.981428981E0,9.127125740E-1,-8.941602707E-2,-2.711813790E-1,-2.276018415E0,-1.494809832E0,5.979790824E0,1.113873073E1,1.703922817E0
7.261495017E0,1.803550363E0,3.355828524E-1,-6.313112974E-1,-3.232291085E-1,-2.281345912E0,-1.267299107E0,6.217843192E0,1.036814008E1,1.733335223E0
7.281178855E0,1.689516544E0,-5.843142271E-1,-8.403511047E-1,-3.535156250E-1,-2.202514648E0,-1.054702759E0,6.303691319E0,9.651245117E0,1.732650757E0
7.300893211E0,1.364932895E0,-1.092995405E0,-6.900768280E-1,-3.743613107E-1,-2.041656494E0,-8.688921247E-1,6.396379743E0,9.079716274E0,1.853042603E0
7.320577049E0,6.752886772E-1,-7.295153141E-1,-1.069948435E0,-3.912527902E-1,-1.796037946E0,-7.095576695E-1,6.548241752E0,8.702457973E0,2.024403163E0
7.340291404E0,9.615099430E-2,-6.020649672E-1,-2.190788925E0,-4.125562395E-1,-1.495330811E0,-5.611790248E-1,6.708655221E0,8.407967704E0,2.225856236E0
7.359975242E0,2.015006542E-2,-2.423305511E-1,-2.796408474E0,-4.171251569E-1,-1.141207014E0,-4.249834333E-1,6.802710397E0,8.142558507E0,2.254244123E0
7.379689597E0,3.989880085E-1,1.574223042E-1,-2.854626000E0,-4.117998396E-1,-7.637983050E-1,-2.720358712E-1,6.940891811E0,7.841570173E0,2.306573050E0
7.399373435E0,3.827397823E-1,4.372965097E-1,-2.840534687E0,-3.938402448E-1,-3.955230713E-1,-8.896309989E-2,7.001427787E0,7.510484968E0,2.378058297E0
7.419057273E0,3.365132809E-1,6.043429375E-1,-3.506949306E0,-3.567090716E-1,-5.843898228E-2,1.096300398E-1,6.857094901E0,7.391122001E0,2.364037650E0
7.438771629E0,-3.010499477E-2,1.200978041E0,-3.919807553E0,-3.386012486E-1,1.995064872E-1,3.319680350E-1,6.606726510E0,7.536479405E0,2.369851249E0
7.458485984E0,2.058308125E-1,1.857468843E0,-4.217022657E0,-3.609706334E-1,3.244454520E-1,5.613054548E-1,6.219892229E0,7.769060407E0,2.366091047E0
7.478200340E0,1.126338243E0,2.361770511E0,-3.106103539E0,-3.529074533E-1,3.293173654E-1,7.757263184E-1,5.766706194E0,7.913057600E0,2.044581822E0
7.497884178E0,1.014893413E0,3.371763110E0,-1.996462941E0,-3.032945905E-1,3.010057722E-1,9.737134661E-1,5.392527989E0,8.183942522E0,1.719994681E0
7.517598533E0,-3.137680888E-1,3.507880092E0,-3.092496634E0,-2.529253278E-1,2.829001290E-1,1.188439505E0,5.380554199E0,8.691170829E0,1.813374111E0
7.537282371E0,3.229321241E-1,2.487721205E0,-4.286419988E0,-2.474408831E-1,3.253609794E-1,1.412602016E0,5.493425642E0,9.403274536E0,2.210806710E0
7.556996726E0,1.022615492E0,3.088938951E0,-2.242871523E0,-2.258366176E-1,3.816637312E-1,1.640718733E0,5.537891933E0,9.807553973E0,2.399268014E0
7.576680564E0,8.414081335E-1,3.294421792E0,-2.052124977E0,-1.740940639E-1,4.533429827E-1,1.848142351E0,5.352850778E0,1.006920515E1,2.332571847E0
7.596364402E0,-1.364637017E-1,2.639722824E0,-3.507318854E0,-1.456320626E-1,5.198451451E-1,2.045979091E0,5.210909162E0,1.036745780E1,2.497767857E0
7.616078758E0,-6.849219203E-1,2.080776095E0,-3.886736870E0,-1.135275705E-1,5.906066895E-1,2.213681902E0,5.013214111E0,1.086100333E1,2.468697684E0
7.635793113E0,-3.616417646E-1,2.071875334E0,-2.726274371E0,-8.963012695E-2,6.373269217E-1,2.357646397E0,4.722832816E0,1.123175921E1,2.332227434E0
7.655446433E0,-1.707232594E-1,2.648264170E0,-2.354875922E0,-7.304382324E-2,6.501116071E-1,2.476497105E0,4.381147112E0,1.153343419E1,2.331542969E0
7.675160789E0,-2.281016111E-2,2.793822646E0,-1.556500316E0,-1.352866037E-1,6.300266811E-1,2.595044817E0,4.156090873E0,1.171607099E1,3.023468018E0
7.694875144E0,-8.702918887E-1,2.414739370E0,-2.285118937E0,-2.090955462E-1,6.106959752E-1,2.667633057E0,3.842453003E0,1.175164359E1,3.345317296E0
7.714558982E0,-1.085387647E0,1.907840490E0,-2.884910822E0,-2.265973772E-1,5.735669817E-1,2.648461478E0,3.154972621E0,1.136104911E1,2.975585938E0
7.734273338E0,-1.469698787E0,2.575638652E0,-1.604914546E0,-1.909855434E-1,4.877362932E-1,2.566129412E0,2.447655814E0,1.066501726E1,2.434836251E0
7.753987693E0,-9.653867483E-1,2.308550239E0,-6.973791122E-1,-1.543121338E-1,4.005366734E-1,2.454735892E0,1.967106410E0,1.013043213E1,2.479642596E0
7.773702049E0,1.014898479E0,1.344155788E0,4.752862453E-2,-1.740918841E-1,3.462066650E-1,2.337557111E0,1.832347325E0,9.850306920E0,3.049122402E0
7.793385887E0,1.662064791E0,1.360938311E0,1.188660383E0,-2.180720738E-1,3.398154122E-1,2.162547520E0,1.638076782E0,9.763772147E0,3.297775269E0
7.813100242E0,9.556698203E-1,5.712761879E-1,2.424007654E-1,-2.398332868E-1,3.352464948E-1,1.915102277E0,1.045340402E0,9.200454712E0,3.205766950E0
7.832784080E0,1.642407775E-1,5.617749691E-1,3.546113968E-1,-1.813986642E-1,2.530713763E-1,1.643306187E0,5.254560198E-1,8.220195225E0,2.750529698E0
7.852467918E0,-1.560574770E-2,-3.322498798E-1,4.733375311E-1,-4.747881208E-2,1.278272356E-1,1.403623308E0,5.199846540E-1,7.475601196E0,2.363351004E0
7.872182273E0,-5.906265378E-1,3.574275970E-2,4.670628309E-1,2.069963728E-2,-2.724783761E-2,1.233788627E0,1.125032697E0,7.143831526E0,2.913678850E0
7.891866111E0,4.987448454E-1,1.436781883E-1,2.210069418E0,1.302642822E-1,-1.395525251E-1,1.082369123E0,1.671938215E0,7.053196498E0,2.691698347E0
7.911580467E0,1.924542546E0,5.932732821E-1,4.012899041E0,2.549046108E-1,-1.089673723E-1,9.091905866E-1,1.917855399E0,6.743998936E0,2.677675520E0
7.931264305E0,-2.673418522E-1,5.764306784E-1,2.370008230E0,3.518458775E-1,-3.104727609E-2,7.233755929E-1,2.364545550E0,6.555886405E0,2.930781773E0
7.950978660E0,-2.455460906E0,4.434177876E-1,-4.199136496E-1,3.454502651E-1,1.675480434E-1,5.571943011E-1,3.041423253E0,6.515866961E0,4.257847377E0
7.970662498E0,-3.211300254E0,1.401252866E0,-9.504683018E-1,3.268868583E-1,4.337136405E-1,4.249485561E-1,4.032961164E0,6.378714425E0,5.055461339E0
7.990376853E0,-9.360511303E-1,1.034018278E0,-1.391077101E0,3.501674107E-1,7.339630127E-1,3.137054443E-1,4.838782174E0,6.079437256E0,5.109161377E0
8.010060691E0,-6.665205956E-1,9.348795414E-1,3.719190955E-1,4.233681815E-1,9.569069999E-1,2.210279192E-1,5.147975377E0,5.529458182E0,4.455542428E0
8.029775047E0,-7.214077711E-1,8.510133028E-1,-6.238977313E-1,4.877384731E-1,1.142264230E0,1.555916922E-1,5.225616455E0,5.319449289E0,4.011932373E0
8.049489402E0,-1.140393257E0,1.252040386E0,1.714137793E-1,4.737396240E-1,1.295205253E0,1.192190988E-1,5.696589879E0,5.522275652E0,4.277003697E0
8.069203758E0,-1.922753453E0,1.713026166E0,-6.786733270E-1,4.092145647E-1,1.401426043E0,1.324571882E-1,6.327290126E0,5.686104911E0,4.928567069E0
8.088887596E0,-2.304265976E0,1.489667535E0,-2.403625250E-1,3.381500244E-1,1.393362863E0,1.525442941E-1,6.519849505E0,5.705943516E0,5.249391828E0
8.108601951E0,-3.235400438E0,1.261610270E0,-6.110596657E-2,2.615988595E-1,1.236310686E0,7.006835938E-2,6.108394078E0,6.056182861E0,4.941907610E0
8.128285789E0,-2.886841059E0,3.944967985E-1,6.220155954E-2,1.879468645E-1,9.471675328E-1,-5.624607631E-2,5.913436890E0,6.704663958E0,4.329677037E0
8.148000144E0,-2.267674804E0,-4.692623615E-1,-4.174414277E-1,9.526715960E-2,7.695726667E-1,-1.900111607E-1,6.464444842E0,7.898348127E0,3.619964600E0
8.167683982E0,-1.339450717E0,-5.341515541E-1,-9.496920109E-1,4.854692732E-2,8.036651611E-1,-2.511901855E-1,7.839061192E0,8.727083479E0,3.303933280E0
8.187398338E0,-5.319429636E-1,2.562661171E-1,-5.229410529E-1,4.276384626E-2,9.703020368E-1,-1.801212856E-1,8.595284598E0,8.332724435E0,3.743780954E0
8.207082176E0,3.302587271E-1,5.220946074E-1,-8.962225914E-1,4.306902204E-2,9.232744489E-1,-1.041804722E-1,8.507385254E0,8.335802351E0,3.655879429E0
8.226766014E0,1.002321959E0,6.178259850E-3,-5.459584594E-1,1.547677176E-4,8.302917480E-1,-2.656991141E-2,8.195109776E0,8.895363944E0,3.582685198E0
8.246480369E0,4.193851709E0,1.085063219E-1,1.353481829E0,-6.832667759E-2,8.260323661E-1,-7.548740932E-3,7.910884312E0,9.018833705E0,3.428087507E0
8.266164207E0,4.393136263E0,7.532917261E-1,1.920877337E0,9.586879185E-3,8.464246477E-1,-3.494044713E-2,7.881129674E0,8.686041696E0,2.843220302E0
8.285878562E0,4.056248665E0,-3.999699354E-1,9.350016713E-1,1.765441895E-2,7.875322614E-1,2.060808454E-2,7.735083444E0,7.838834490E0,3.173276629E0
8.305562400E0,3.239855766E0,-6.325360537E-1,1.571107626E0,6.395612444E-3,7.012438093E-1,9.000069754E-2,7.556542533E0,7.326819284E0,2.913674491E0
8.325307273E0,2.615565062E0,-6.117367744E-2,1.555626631E0,4.672241211E-2,8.019866943E-1,1.339808873E-1,7.373554775E0,6.658495222E0,2.601405552E0
8.344991111E0,1.826923013E0,5.464701653E-1,1.104830623E0,8.613586426E-2,9.311915806E-1,2.020023891E-1,7.273343767E0,5.842069353E0,2.678017753E0
8.364705467E0,4.721666574E-1,9.353953600E-1,-4.031090736E-1,6.346130371E-2,1.038781302E0,1.965288435E-1,6.765428816E0,5.717228481E0,2.846978324E0
8.384389305E0,-1.139193058E0,7.824250460E-1,-1.236056983E0,1.643807547E-2,1.155199323E0,1.084136963E-1,6.120363508E0,6.085593087E0,2.426284790E0
8.404073142E0,-2.123976707E0,1.029199004E0,-1.297864020E0,-2.206420898E-2,1.184875488E0,2.197483608E-2,5.580644880E0,6.132108416E0,1.475446429E0
8.423787498E0,-2.373257399E0,1.560177088E0,-6.626757383E-1,-8.780779157E-2,1.255942208E0,-8.789934431E-2,5.428094046E0,6.451566424E0,1.062273298E0
8.443471336E0,-1.751104474E0,1.121170163E0,-6.587260962E-1,-1.164202009E-1,1.435666765E0,-1.903163365E-1,5.707194737E0,6.849345616E0,1.102632795E0
8.463185691E0,-1.264042258E0,1.100944400E0,8.163273335E-3,-1.483764648E-1,1.621935163E0,-2.781241281E-1,5.606632778E0,7.079188756E0,1.284593855E0
8.482869529E0,-1.566671968E0,1.473265886E0,8.246982098E-2,-1.409192766E-1,1.663787842E0,-3.020193917E-1,5.467773438E0,7.278935024E0,1.127602713E0
8.502583885E0,-2.368911505E0,1.681301117E0,-1.027382612E-1,-1.068289621E-1,1.583432879E0,-3.204323905E-1,5.089830671E0,7.578892299E0,6.333705357E-1
8.522267722E0,-2.949768186E0,1.726948380E0,-5.771700740E-1,-8.735002790E-2,1.489085606E0,-3.704986572E-1,4.675977434E0,8.240716117E0,4.565407889E-1
8.541982078E0,-3.196697474E0,1.730674982E0,-1.088680983E0,-1.886858259E-2,1.628633772E0,-3.898250035E-1,4.956096104E0,8.772916521E0,4.845886230E-1
8.561665916E0,-3.151798964E0,1.630209208E0,-1.146021187E0,-4.108537946E-2,1.741701399E0,-3.079528809E-1,5.591245379E0,9.275355748E0,1.742231097E0
8.581380271E0,-2.848610640E0,1.682700753E0,-6.066027284E-1,-1.570478167E-1,1.843817575E0,-2.654942104E-1,5.329592024E0,1.022209385E1,2.882550921E0
8.601064109E0,-2.180373192E0,1.258867264E0,-8.274035454E-1,-1.920492990E-1,1.799680437E0,-3.275822231E-1,3.921118600E0,1.055761937E1,2.298708235E0
8.620778465E0,-1.935076833E0,1.069463134E0,-1.268274665E0,-1.322457450E-1,1.386213030E0,-1.938171387E-1,3.743606567E0,9.695362636E0,8.543221610E-1
8.640492820E0,-1.506494522E0,8.747457266E-1,-1.605012178E0,-9.480721610E-2,1.150785174E0,-1.607186454E-2,4.635615758E0,9.526406424E0,1.914954049E0
8.660176658E0,-1.951841712E0,6.864552498E-1,-2.006775141E0,-9.160940988E-2,1.271769932E0,3.414916992E-2,4.616121565E0,1.044406564E1,3.593630110E0
8.679891014E0,-1.949634910E0,8.060389757E-1,-2.115230381E0,-3.515407017E-2,1.101937430E0,1.581769671E-1,4.143096924E0,9.999433245E0,2.908889771E0
8.699574851E0,-1.772076011E0,1.022928953E0,-1.887425184E0,9.009007045E-2,6.648712158E-1,2.129625593E-1,3.078700474E0,9.518537249E0,1.679637364E0
8.719289207E0,-1.761601925E0,1.154847980E0,-1.658412874E0,2.533830915E-1,4.121028355E-1,2.599857875E-1,2.714098249E0,9.007888794E0,1.598578317E0
8.738973045E0,-1.344504714E0,1.220437169E0,-1.340306520E0,3.889748710E-1,5.992845808E-1,2.634865897E-1,3.007557460E0,9.018491473E0,2.652365548E0
8.758687400E0,-8.070127964E-1,1.376187563E0,-9.404978156E-1,4.923095703E-1,8.188803537E-1,2.035239083E-1,3.123849051E0,9.582842146E0,2.982079642E0
8.778371238E0,-4.232542515E-1,1.181126356E0,-8.950027227E-1,4.862234933E-1,9.628426688E-1,2.166159494E-1,3.338982718E0,9.885535104E0,3.599101475E0
8.798085594E0,-1.201449633E-1,1.269519806E0,-4.283636212E-1,5.384194510E-1,9.841461182E-1,1.558925084E-1,2.778058733E0,9.743593488E0,3.587134225E0
8.817769431E0,1.313489676E-2,1.137356043E0,-1.286729276E-1,6.303318569E-1,8.150743757E-1,1.228724888E-1,2.096394130E0,9.293823242E0,2.752583095E0
8.837483787E0,9.209984541E-2,9.921457767E-1,-1.912242174E-2,6.566619873E-1,3.314426967E-1,2.762712751E-1,1.984211513E0,9.178560529E0,2.479984828E0
8.857167625E0,2.631272078E-1,1.062995911E0,5.034292042E-1,4.270193917E-1,-5.067661830E-1,3.234449114E-1,1.541966030E0,1.003431702E1,3.882989066E0
8.876881980E0,7.733768225E-1,1.130881548E0,1.356064498E0,3.659951346E-1,-9.074576242E-1,3.499276297E-1,2.306056431E0,9.528113229E0,4.479141235E0
8.896596336E0,1.100041747E0,1.244657278E0,2.031714797E0,3.848658970E-1,-7.571018764E-1,3.762512207E-1,4.239889962E0,8.649444580E0,4.981584821E0
8.916310691E0,7.793989778E-1,1.261023760E0,1.347960681E0,4.258008684E-1,-5.067879813E-2,3.398808071E-1,5.150026594E0,8.812251500E0,6.216988700E0
8.935994529E0,4.545840025E-1,1.045684814E0,2.529213727E-1,4.973297119E-1,2.786385672E-1,3.550959996E-1,4.691707066E0,8.115537371E0,5.196376256E0
8.955678367E0,5.818378925E-1,1.125701427E0,-4.239107221E-1,4.875880650E-1,2.275063651E-1,3.331843785E-1,3.961820330E0,7.975987026E0,5.259654454E0
8.975392722E0,1.109744310E0,1.184542418E0,-9.462743998E-2,4.247371129E-1,-2.804718018E-1,4.027295794E-1,3.552756173E0,7.613095965E0,5.234684535E0
8.995076560E0,1.644028306E0,8.103647232E-1,5.968192071E-1,4.238259452E-1,-1.198880877E0,6.101510184E-1,3.529495239E0,6.994365147E0,4.893683297E0
9.014790916E0,1.861918211E0,-1.748363972E-1,7.061622888E-1,3.341936384E-1,-1.354415894E0,5.661751883E-1,3.088963100E0,7.620620728E0,5.533615112E0
9.034474754E0,1.994407594E0,-9.509816170E-1,6.988698095E-1,2.313167027E-1,-1.129943848E0,5.570417132E-1,4.627064296E0,7.499886649E0,6.706093924E0
9.054189109E0,2.310574055E0,-9.189491272E-1,1.197487429E0,6.848362514E-2,-3.386056083E-1,5.526275635E-1,6.100524902E0,7.951363700E0,8.446334839E0
9.073872947E0,2.739965916E0,-1.632738113E-1,1.904268712E0,5.341884068E-2,-9.815979004E-2,4.289027623E-1,4.521724156E0,8.041658674E0,7.218109131E0
9.093587303E0,3.281893551E0,2.211837769E-1,2.496905982E0,1.202392578E-2,-1.006070818E0,5.110822405E-1,2.372070312E0,7.597366333E0,4.607062204E0
9.113271140E0,3.842260540E0,2.233273983E-1,2.959098458E0,-1.827654157E-1,-2.120485578E0,5.781947545E-1,1.131190709E0,8.311519078E0,3.532409668E0
9.132985496E0,4.258406281E0,3.414332867E-1,3.653988004E0,-2.774222238E-1,-2.815039498E0,5.538439069E-1,2.341973441E0,8.631314959E0,2.728639875E0
9.152669334E0,4.118149936E0,6.041309834E-1,3.790283740E0,-1.985931396E-1,-2.348151071E0,4.127742222E-1,4.289140974E0,8.110748291E0,3.221158709E0
9.172383689E0,3.404278159E0,1.763105392E-1,3.063765287E0,-1.654205322E-1,-1.615400042E0,2.363978795E-1,4.344549997E0,8.090569632E0,3.894958496E0
9.192098045E0,2.731221616E0,-4.699189663E-1,2.436950564E0,-1.838335310E-1,-1.040614537E0,2.461329869E-1,4.532666888E0,7.926736014E0,3.022443499E0
9.211781883E0,2.560572922E0,-9.402804375E-1,2.320324719E0,-2.145756313E-1,-6.489018032E-1,1.922651018E-1,4.264857701E0,8.271159581E0,3.711970738E0
9.231496238E0,2.595169544E0,-1.187016010E0,2.455476582E0,-2.549024309E-1,-5.702274867E-1,3.871590751E-2,3.405341012E0,8.775990077E0,3.058696202E0
9.251180076E0,2.554631889E0,-1.312013626E0,2.508652568E0,-3.809073312E-1,-5.084402902E-1,-3.859383719E-2,3.398154122E0,8.604638236E0,3.043648856E0
9.270894431E0,2.312118709E0,-1.394098282E0,2.288205504E0,-3.381456648E-1,-5.775299072E-1,-2.524043492E-1,2.469205584E0,8.419257028E0,3.156518119E0
9.290578269E0,2.043462515E0,-1.377858639E0,1.949300140E0,-3.322078160E-1,-6.148136684E-1,-4.818943569E-1,2.109734671E0,8.042003087E0,3.875117711E0
9.310292625E0,1.823359430E0,-1.228379250E0,1.802591860E0,-1.486751011E-1,-5.429818290E-1,-6.276855469E-1,2.704864502E0,7.104840960E0,3.240315029E0
9.330006980E0,1.597940028E0,-8.585879803E-1,1.860796690E0,4.428754534E-2,-4.156101772E-1,-7.599291120E-1,3.148476737E0,6.561700003E0,2.971134731E0
9.349690818E0,1.323307097E0,-4.210801125E-1,1.820685089E0,1.899239676E-1,-4.245888846E-1,-8.007114955E-1,3.948137556E0,6.670809065E0,2.401661464E0
9.369374656E0,1.078774869E0,-2.350368500E-1,1.575254679E0,2.780369350E-1,-3.760397775E-1,-8.250645229E-1,4.567210606E0,7.475941249E0,2.765917097E0
9.389089012E0,8.855592012E-1,-1.884491444E-1,1.206844985E0,3.631025042E-1,-3.250623431E-1,-8.173021589E-1,5.171920776E0,7.936656407E0,2.587727138E0
9.408772849E0,6.723318696E-1,-2.625954151E-1,9.683438390E-1,4.075382778E-1,-5.661446708E-2,-7.657121931E-1,5.843664987E0,7.522118705E0,1.614652361E0
9.428487205E0,5.301093459E-1,-4.048249722E-1,8.289719820E-1,1.005924770E-1,1.104779925E-1,-4.736785889E-1,7.344826835E0,7.563502720E0,4.701801845E0
9.448171043E0,3.141427636E-1,-4.336504936E-1,6.363388300E-1,7.289559501E-2,3.086177281E-1,-2.151249477E-1,9.674386161E0,8.073806763E0,4.413816180E0
9.467885398E0,9.393340349E-2,-1.943674088E-1,3.617868125E-1,-5.204119001E-2,3.571602958E-1,-7.511683873E-2,9.080280849E0,8.133662633E0,4.844087873E0
9.487599754E0,-4.108607769E-2,3.117749691E-1,2.834246606E-1,1.156572614E-1,4.102739607E-1,1.415906634E-1,8.683530535E0,7.025490897E0,4.167896816E0
9.507283592E0,-1.285618544E-1,1.070025206E0,3.180942088E-1,1.007472447E-1,3.039005824E-1,3.385075160E-1,8.034698486E0,6.974188668E0,4.810910906E0
9.526997947E0,-1.357560754E-1,1.608137131E0,4.302503318E-1,1.039428711E-1,3.230765206E-1,4.747096470E-1,7.509684971E0,7.464314052E0,4.771235875E0
9.546681785E0,-2.996001840E-1,1.482373714E0,3.465269506E-1,5.265808105E-2,2.967529297E-1,5.413665771E-1,6.942943028E0,7.998903547E0,4.656655448E0
9.566396140E0,-6.734180450E-1,7.687339783E-1,-1.109357178E-1,-6.083897182E-3,1.973746164E-1,5.247802734E-1,5.978079660E0,8.315279279E0,3.184906006E0
9.586079978E0,-1.133284390E0,1.374063492E-1,-6.276669800E-1,-3.621346610E-2,1.275264195E-1,4.264722552E-1,4.466315133E0,8.429859706E0,2.474855695E0
9.605794334E0,-1.571720183E0,1.311023235E-1,-1.050191075E0,-6.833103725E-2,-2.217298235E-1,4.231218610E-1,3.466559274E0,8.111432757E0,1.684422084E0
9.625478172E0,-1.861607671E0,3.427670002E-1,-1.232842475E0,-1.943315778E-1,-7.307739258E-1,4.042532785E-1,2.794472831E0,8.687748500E0,2.376353673E0
9.645192527E0,-1.917521358E0,4.601504803E-1,-1.310882300E0,-2.167031424E-1,-1.074702672E0,3.971012660E-1,2.916580200E0,8.874496460E0,2.526502337E0
9.664876365E0,-1.765940964E0,4.527177811E-1,-1.131274521E0,-1.532418387E-1,-1.089917864E0,3.716866629E-1,3.612607683E0,8.389500209E0,2.517953055E0
9.684590721E0,-1.485658228E0,3.936090469E-1,-8.918596357E-1,-7.898167201E-2,-7.889055525E-1,3.010755266E-1,4.153699602E0,8.342984881E0,3.057331630E0
9.704274558E0,-1.141916752E0,2.675037384E-1,-6.087890416E-1,-5.569675991E-2,-4.973297119E-1,2.193516323E-1,4.032961164E0,8.651838030E0,3.145233154E0
9.723958396E0,-7.027435899E-1,1.256215572E-1,-5.105612427E-1,-4.733058384E-2,-3.355603899E-1,1.300266811E-1,3.417312622E0,8.855002267E0,2.944460188E0
9.743672752E0,-3.807786107E-1,4.525232315E-2,-5.677656978E-1,-2.723911830E-2,-3.291713170E-1,3.171430315E-2,2.783190046E0,8.950430734E0,2.622953142E0
9.763387107E0,-2.452283502E-1,9.278416634E-2,-7.161385715E-1,-4.566737584E-3,-4.014522008E-1,-4.817853655E-2,2.483915057E0,8.925805228E0,2.090412685E0
9.783101463E0,4.651427269E-2,2.110157013E-1,-8.318082690E-1,1.507132394E-2,-3.764975412E-1,-1.426827567E-1,2.338551113E0,8.945981707E0,1.697080340E0
9.802785301E0,3.855676055E-1,3.472521305E-1,-9.425921887E-1,4.215567453E-2,-3.477347238E-1,-2.493634905E-1,2.407638550E0,8.893312727E0,1.738468715E0
9.822499656E0,5.008320808E-1,3.653478622E-1,-1.179155469E0,7.091631208E-2,-2.115347726E-1,-3.726305280E-1,2.699733189E0,8.967873710E0,2.221753802E0
9.842183494E0,4.985767603E-1,3.161633015E-1,-1.402214110E0,1.938781738E-1,1.080431257E-1,-5.067007882E-1,3.277422224E0,8.612845285E0,1.962498256E0
9.861897849E0,5.969749093E-1,2.982981205E-1,-1.565806359E0,3.051256452E-1,4.979313442E-1,-6.462511335E-1,3.326328823E0,8.503738403E0,1.546245030E0
9.881581687E0,7.958892584E-1,2.426466942E-1,-1.532790989E0,3.790828160E-1,7.765720912E-1,-6.485312326E-1,3.790464129E0,8.384031023E0,1.271937779E0
9.901296043E0,1.014475763E0,1.871569157E-1,-1.433030993E0,4.630868094E-1,9.118608747E-1,-6.508156913E-1,3.338644845E0,8.333066668E0,9.497506278E-1
9.920979881E0,1.266769588E0,1.762719154E-1,-1.376032859E0,5.355246408E-1,7.408098493E-1,-6.342293876E-1,3.010293143E0,8.319046021E0,5.639386858E-1
9.940694236E0,1.459526658E0,1.832630634E-1,-1.363962889E0,5.840715681E-1,3.930773054E-1,-5.826394217E-1,2.983276367E0,8.609082903E0,7.328992571E-1
9.960378074E0,1.585579216E0,9.993290901E-2,-1.406645864E0,6.313977923E-1,-1.689801897E-2,-5.658983503E-1,3.007217407E0,8.860475813E0,8.351702009E-1
9.980061912E0,1.595272779E0,3.464221954E-3,-1.466339350E0,6.864885603E-1,-3.629542759E-1,-5.987701416E-1,2.934707642E0,9.037645612E0,9.453037807E-1
9.999776267E0,1.524243236E0,-1.332759857E-4,-1.457958460E0,7.338169643E-1,-5.340031215E-1,-6.757725307E-1,3.238089425E0,9.170353481E0,1.087585449E0
1.001949062E1,1.449330389E0,-2.055072784E-2,-1.443281025E0,7.665361677E-1,-4.146990095E-1,-7.970602853E-1,3.639971052E0,9.437135969E0,1.358128139E0
1.003920498E1,1.355829537E0,4.934501648E-2,-1.455024362E0,8.226885114E-1,-1.920536586E-1,-9.159153530E-1,3.917013986E0,9.380017962E0,1.209690639E0
1.005888882E1,1.241427720E0,1.678607464E-1,-1.482428014E0,8.506905692E-1,3.788757324E-2,-1.019093105E0,4.074345180E0,9.474073138E0,1.404301235E0
1.007860317E1,1.074201226E0,2.116160393E-1,-1.441476285E0,8.771711077E-1,2.051326207E-1,-1.109032767E0,4.121549334E0,9.620119367E0,1.642700195E0
1.009828701E1,9.288628697E-1,1.558375359E-1,-1.380960345E0,9.036516462E-1,2.387695312E-1,-1.170508248E0,4.035354614E0,9.558212280E0,1.718287877E0
1.011800137E1,8.504257798E-1,2.318499088E-1,-1.240891099E0,9.168897356E-1,1.336103167E-1,-1.208561489E0,3.926932199E0,9.569843837E0,1.712816511E0
1.013768520E1,7.862615585E-1,3.147234917E-1,-1.087056309E0,8.598218645E-1,3.088814872E-2,-1.240057809E0,3.913933890E0,9.770956857E0,2.109571184E0
1.015739956E1,6.906048059E-1,3.328793049E-1,-1.066580474E0,7.592337472E-1,-6.468200684E-2,-1.211144584E0,4.184138707E0,9.933077131E0,2.729664394E0
1.017708340E1,5.347577929E-1,2.645449638E-1,-1.043111891E0,5.644378662E-1,-2.329929897E-1,-1.130641392E0,4.369517735E0,1.009622410E1,3.351473127E0
1.019679775E1,3.638144732E-1,2.408850193E-1,-1.062115848E0,3.795405797E-1,-5.120915004E-1,-1.095336914E0,4.036381313E0,1.027647400E1,2.914701189E0
1.021648159E1,2.229832411E-1,2.210259438E-1,-1.004979938E0,2.833622524E-1,-8.646959577E-1,-1.111312866E0,3.503845215E0,1.017899649E1,1.854071481E0
1.023616543E1,1.332220435E-1,2.484107018E-1,-8.948065937E-1,2.769753592E-1,-1.182904925E0,-1.156206403E0,3.233640398E0,1.013316563E1,9.497484480E-1
1.025587978E1,1.141296625E-1,3.102328777E-1,-8.428110182E-1,2.976662772E-1,-1.409957886E0,-1.172031948E0,3.363272531E0,1.035001046E1,4.989536830E-1
1.027556362E1,9.261971712E-2,4.362406731E-1,-7.918659002E-1,2.084917341E-1,-1.548137120E0,-1.095031738E0,3.693326678E0,1.039994594E1,9.223872593E-1
1.029527798E1,-1.071518660E-1,5.120449066E-1,-8.673362881E-1,8.050537109E-2,-1.608248029E0,-9.430040632E-1,4.011755807E0,1.005484227E1,1.385149275E0
1.031496181E1,-3.256527781E-1,4.206302166E-1,-9.341577888E-1,3.363255092E-2,-1.600032261E0,-7.777361189E-1,4.065111433E0,9.207635062E0,1.393702916E0
1.033470669E1,-4.693687558E-1,2.775392532E-1,-9.647035599E-1,1.066807338E-1,-1.553309849E0,-6.447274344E-1,4.082214355E0,8.504767282E0,1.306825910E0
1.035439053E1,-5.057069063E-1,1.916348934E-1,-8.826989084E-1,2.147282192E-1,-1.478138515E0,-5.304412842E-1,4.233045306E0,8.297840663E0,1.557876587E0
1.037410488E1,-4.344866276E-1,1.292762756E-1,-6.992477477E-1,2.682974679E-1,-1.348781041E0,-4.519151960E-1,4.505647932E0,8.889205933E0,2.060998099E0
1.039378872E1,-4.095139503E-1,5.962371826E-3,-6.122681499E-1,2.663203648E-1,-1.153531756E0,-4.080875942E-1,4.900691441E0,9.485362462E0,2.590460641E0
1.041350307E1,-3.976465464E-1,-1.038036346E-1,-5.723090172E-1,2.731650216E-1,-8.793029785E-1,-3.876953125E-1,5.337118966E0,9.664245605E0,2.974559239E0
1.043318691E1,-4.164056182E-1,-8.260393143E-2,-6.094077080E-1,2.669263567E-1,-5.302015032E-1,-3.616747175E-1,5.781071254E0,9.652614049E0,3.326505389E0
1.045290127E1,-4.585335851E-1,-6.643676758E-2,-6.281371713E-1,2.048383440E-1,-1.695338658E-1,-3.073468890E-1,6.086502075E0,9.804133824E0,3.930528913E0
1.047258510E1,-4.646815062E-1,-1.693909168E-1,-6.775490046E-1,9.070042201E-2,1.088060652E-1,-2.420588902E-1,5.925406320E0,1.007501875E1,4.023561750E0
1.049226894E1,-4.074274302E-1,-1.724815369E-1,-5.889159441E-1,-1.232474191E-2,1.670902797E-1,-1.662728446E-1,5.312833514E0,9.764116560E0,3.435272217E0
1.051198330E1,-2.436355948E-1,1.253969669E-1,-4.233081639E-1,-5.569675991E-2,6.816973005E-2,-8.409554618E-2,4.628090995E0,9.199765887E0,2.817565918E0
1.053166714E1,-2.158370614E-1,7.221260071E-1,-3.687609434E-1,-8.034842355E-2,-8.081054688E-2,2.136666434E-2,4.315819877E0,8.702804565E0,2.557281494E0
1.055138149E1,-2.907292247E-1,9.334774017E-1,-7.883526087E-1,-1.053096226E-1,-1.695338658E-1,1.534576416E-1,4.315477644E0,8.387451172E0,2.645525251E0
1.057106533E1,-4.307073951E-1,9.749681950E-1,-9.177516997E-1,-1.386326381E-1,-1.801845006E-1,2.952924456E-1,4.399956839E0,8.227722168E0,2.809701102E0
1.059077969E1,-5.900818706E-1,8.120999336E-1,-1.003560185E0,-1.616145543E-1,-1.652723040E-1,4.310346331E-1,4.378409249E0,8.110748291E0,2.800462995E0
1.061049404E1,-6.017318964E-1,3.171613216E-1,-7.147368789E-1,-1.817016602E-1,-1.596418108E-1,5.485185896E-1,4.233389718E0,8.021480015E0,2.623979841E0
1.063020840E1,-5.132029653E-1,-1.466777325E-1,-6.489232033E-1,-1.842891148E-1,-1.512712751E-1,6.369389125E-1,4.093503680E0,8.010190691E0,2.357197353E0
1.064989223E1,-8.623343706E-2,-1.523289680E-1,-6.872145832E-2,-1.596352713E-1,-9.938049316E-2,6.842651367E-1,4.020649501E0,8.096725464E0,2.211835589E0
1.066960659E1,4.157968163E-1,3.104088306E-1,8.152299523E-1,-1.463971819E-1,-5.632672991E-3,7.006988525E-1,3.939930507E0,8.325539725E0,2.304866246E0
1.068929043E1,8.825232983E-1,9.797875881E-1,1.519934475E0,-1.503513881E-1,1.007385254E-1,6.818302699E-1,3.831165859E0,8.693222046E0,2.351723807E0
1.070900478E1,1.086719036E0,1.660072088E0,1.932319492E0,-1.730281285E-1,1.734815325E-1,6.518489293E-1,3.707691738E0,8.973345075E0,2.253219604E0
1.072868862E1,7.000367641E-1,2.284670115E0,2.114737868E0,-1.931174142E-1,1.841321673E-1,6.256779262E-1,3.628341675E0,9.018151420E0,2.033981323E0
1.074840298E1,-2.189363241E-1,2.461719751E0,1.928826272E0,-1.716591971E-1,1.832231794E-1,5.924987793E-1,3.552071708E0,9.022596087E0,1.753171648E0
1.076808681E1,-1.206205368E0,1.932005167E0,1.462940097E0,-1.448756627E-1,1.905277797E-1,5.730198451E-1,3.466219221E0,8.897412981E0,1.600969587E0
1.078777065E1,-1.891097665E0,1.284587622E0,1.377644241E0,-1.054578509E-1,2.087860107E-1,5.719560896E-1,3.445016044E0,8.744186401E0,1.523330688E0
1.080748501E1,-2.256426632E0,7.041275501E-1,1.569433004E0,-4.336765834E-2,2.590070452E-1,5.707375663E-1,3.330775670E0,8.664151873E0,1.401909964E0
1.082716885E1,-2.319846928E0,3.223330975E-1,2.094999790E0,4.504830497E-2,3.355538504E-1,5.567365374E-1,3.225431170E0,8.766416277E0,1.168646676E0
1.084688320E1,-2.207726359E0,1.152658463E-2,2.438841641E0,1.165706090E-1,4.265594482E-1,5.406079973E-1,3.173102243E0,9.103999547E0,1.052019392E0
1.086656704E1,-2.193216205E0,-4.043347836E-1,2.535010457E0,1.639011928E-1,5.426701137E-1,5.016501290E-1,3.137189593E0,9.645431519E0,1.012340001E0
1.088628139E1,-2.162208796E0,-9.104464054E-1,2.513751328E0,1.670968192E-1,6.715720040E-1,4.620797294E-1,3.173444475E0,1.030178397E1,1.118368966E0
1.090599575E1,-2.197599649E0,-1.232329130E0,2.542221308E0,1.188550677E-1,7.741394043E-1,4.407784598E-1,3.214826311E0,1.063286700E1,1.220635550E0
1.092571010E1,-2.204780817E0,-1.379427671E0,2.484987438E0,4.656764439E-2,8.001643590E-1,4.454934256E-1,3.102645874E0,1.041944013E1,1.138887678E0
1.094539394E1,-2.300898075E0,-1.410081387E0,2.422162473E0,2.085222517E-2,7.485722133E-1,4.634486607E-1,2.830045428E0,9.764456613E0,7.715475900E-1
1.096507778E1,-2.343224883E0,-1.368903160E0,2.164772332E0,4.611424037E-2,6.603088379E-1,4.728873117E-1,2.486990792E0,9.123495919E0,3.405957903E-1
1.098479214E1,-2.253395557E0,-1.114115000E0,1.898592085E0,7.380894252E-2,5.438908168E-1,4.637538365E-1,2.143938337E0,8.974367414E0,-9.987967355E-3
1.100447597E1,-1.977889657E0,-7.608022690E-1,1.741923124E0,8.582850865E-2,3.999285017E-1,4.316449847E-1,1.883651733E0,9.110155378E0,-2.517983573E-1
1.102419033E1,-1.594688296E0,-5.176188946E-1,1.557468235E0,1.008976528E-1,2.565721784E-1,3.669695173E-1,1.774202619E0,9.255172729E0,-3.595384870E-1
1.104387417E1,-1.212688088E0,-5.193595886E-1,1.403195620E0,1.200735910E-1,1.500483922E-1,2.756587437E-1,1.835083008E0,9.288696289E0,-3.414132254E-1
1.106358852E1,-9.639046788E-1,-7.214255333E-1,1.160524189E0,1.349857875E-1,9.876142229E-2,1.638074602E-1,2.052614485E0,9.256201608E0,-1.693703788E-1
1.108327236E1,-7.059499621E-1,-9.251542091E-1,9.318905622E-1,1.392495292E-1,1.069793701E-1,4.191371373E-2,2.315634591E0,9.182669503E0,2.456011091E-2
1.110298672E1,-4.116010070E-1,-1.045353174E0,8.006041944E-1,1.395503453E-1,1.931130545E-1,-8.957563128E-2,2.610120501E0,9.077665057E0,2.677416120E-1
1.112267056E1,-3.205722570E-2,-1.071084738E0,8.045711517E-1,1.389421735E-1,3.349456787E-1,-2.184709821E-1,2.982249669E0,8.957271031E0,3.450404576E-1
1.114238491E1,4.981029034E-1,-5.840167999E-1,8.565587103E-1,1.400081090E-1,4.956468855E-1,-3.257598877E-1,3.241507394E0,8.901177543E0,3.488006592E-1
1.116206875E1,1.172162056E0,6.849498749E-1,1.005468398E0,1.380288260E-1,6.371786935E-1,-4.217834473E-1,3.374555315E0,8.902204241E0,2.386692592E-1
1.118178310E1,1.931182563E0,2.510444641E0,1.287705421E0,1.304212298E-1,7.577035086E-1,-4.995487758E-1,3.412523542E0,9.016440255E0,1.213553292E-1
1.120149746E1,2.820612311E0,3.923044443E0,1.693882257E0,1.117008754E-1,8.645324707E-1,-5.412488665E-1,3.668358939E0,9.177195958E0,5.021449498E-2
1.122121181E1,3.623911083E0,3.933938503E0,1.784326345E0,9.298270089E-2,9.774540492E-1,-5.697065081E-1,3.819536482E0,9.307163783E0,-1.921735491E-2
1.124089565E1,4.086284399E0,2.186089277E0,1.176812053E0,8.781215123E-2,1.025085449E0,-5.869031634E-1,3.796962193E0,9.350947789E0,-2.124677386E-1
1.126057949E1,3.863571703E0,1.243267059E-1,1.489925981E-1,8.202907017E-2,9.844512939E-1,-5.869009835E-1,3.686484201E0,9.340340751E0,-3.698011126E-1
1.128029385E1,3.141997993E0,-1.089676619E0,-6.372135282E-1,8.157130650E-2,8.782305036E-1,-5.742688860E-1,3.636548723E0,9.356761387E0,-4.908774240E-1
1.129997768E1,2.446540713E0,-9.937386513E-1,-7.236471772E-1,7.882908412E-2,7.462899344E-1,-5.366777693E-1,3.710771833E0,9.349923270E0,-4.765123640E-1
1.131969204E1,2.174743414E0,-1.889967918E-2,-3.409623504E-1,7.548522949E-2,6.178501674E-1,-4.834158761E-1,3.800040109E0,9.335209438E0,-3.718523298E-1
1.133937588E1,2.036553085E0,9.517214298E-1,-4.692655504E-1,7.304818290E-2,5.244097028E-1,-4.153921945E-1,3.918725150E0,9.316744123E0,-2.901066371E-1
1.135909023E1,1.722169518E0,1.446319103E0,-9.198623598E-1,7.045854841E-2,4.795118059E-1,-3.359549386E-1,4.070925031E0,9.343760899E0,-2.319619315E-1
1.137877407E1,1.038325250E0,1.493014574E0,-1.483978003E0,6.695992606E-2,4.781450544E-1,-2.511901855E-1,4.167033604E0,9.362570626E0,-2.514583043E-1
1.139848843E1,2.177578211E-1,1.241812229E0,-1.966294110E0,7.929120745E-2,5.096500942E-1,-1.620112828E-1,4.221078055E0,9.289380755E0,-2.723214286E-1
1.141817226E1,-4.993198514E-1,7.193429470E-1,-2.388361394E0,1.040954590E-1,5.333905901E-1,-7.116045271E-2,4.203637259E0,9.212762015E0,-3.284149170E-1
1.143788662E1,-1.023072720E0,2.490713596E-1,-2.675467730E0,1.252441406E-1,5.399344308E-1,1.862662179E-2,4.131809780E0,9.203870501E0,-3.246503557E-1
1.145757046E1,-1.370239496E0,7.933616638E-3,-2.580306590E0,1.453334263E-1,5.230429513E-1,1.020224435E-1,4.073660714E0,9.190192086E0,-3.126809256E-1
1.147731533E1,-1.479371250E0,-5.720329285E-2,-2.283733845E0,1.693769182E-1,5.018877302E-1,1.773507254E-1,3.993288313E0,9.229182652E0,-3.171277727E-1
1.149699917E1,-1.642836690E0,-9.764146805E-2,-2.032275707E0,1.928165981E-1,4.986942836E-1,2.324371338E-1,3.956346784E0,9.298956735E0,-3.749324254E-1
1.151671352E1,-1.908019423E0,-4.667830467E-2,-1.915761888E0,2.103162493E-1,5.131487165E-1,2.770276751E-1,3.900937762E0,9.405327933E0,-4.105006627E-1
1.153639736E1,-2.245473027E0,1.902811527E-1,-1.826449752E0,2.328382220E-1,5.198451451E-1,3.085327148E-1,3.819534302E0,9.406012399E0,-4.429931641E-1
1.155611172E1,-2.758142710E0,3.995740414E-1,-1.784521908E0,2.647966657E-1,5.496717181E-1,3.248160226E-1,3.764127459E0,9.342734201E0,-4.234989711E-1
1.157579556E1,-3.313788891E0,5.498839617E-1,-1.875568986E0,2.941676549E-1,5.945674351E-1,3.310546875E-1,3.764809745E0,9.411823818E0,-3.612474714E-1
1.159547939E1,-3.759675860E0,9.447782040E-1,-1.856334805E0,3.090820312E-1,6.590881348E-1,3.334873744E-1,3.772334508E0,9.484337943E0,-2.586430141E-1
1.161519375E1,-4.059174418E0,1.514370918E0,-1.733116448E0,3.299298968E-1,7.356371198E-1,3.350088937E-1,3.774730137E0,9.519908360E0,-2.665056501E-1
1.163487759E1,-4.126755595E0,1.934974432E0,-1.459584951E0,3.491036551E-1,8.068586077E-1,3.333347866E-1,3.723765782E0,9.477495466E0,-3.133653913E-1
1.165459194E1,-4.094703555E0,2.247628212E0,-1.169064045E0,3.691907610E-1,8.581412179E-1,3.296813965E-1,3.618421282E0,9.416272845E0,-3.397042411E-1
1.167427578E1,-4.267382145E0,3.269844174E0,-1.412901789E0,3.866904122E-1,9.031873431E-1,3.217708043E-1,3.529837472E0,9.407381330E0,-3.691166469E-1
1.169399014E1,-4.401444197E0,4.961362958E0,-1.730486721E0,3.964342390E-1,9.327087402E-1,3.141632080E-1,3.466905866E0,9.375911168E0,-3.639831543E-1
1.171367397E1,-4.227208495E0,5.735704541E0,-1.832893491E0,3.958260672E-1,9.661908831E-1,3.013785226E-1,3.436122349E0,9.398827689E0,-2.948957171E-1
1.173338833E1,-3.894541740E0,4.799831748E0,-1.804861099E0,3.994750977E-1,1.024475098E0,2.809862409E-1,3.468614851E0,9.444318499E0,-2.928444999E-1
1.175310268E1,-3.281519651E0,3.234419346E0,-1.142850667E0,3.968876430E-1,1.094024658E0,2.580065046E-1,3.494951521E0,9.564025879E0,-2.524850028E-1
1.177278652E1,-2.215648770E0,1.820520043E0,1.106287539E-1,3.860822405E-1,1.121111189E0,2.325940813E-1,3.378657750E0,9.642353603E0,-3.311505999E-1
1.179250088E1,-1.079787374E0,7.002000809E-1,1.659578055E0,3.736049107E-1,1.087783813E0,2.073320661E-1,3.202174595E0,9.638589042E0,-4.180232457E-1
1.181221523E1,-2.399494648E-1,1.127552986E-1,2.946379840E0,3.620387486E-1,1.001192365E0,1.822204590E-1,3.060915266E0,9.506227766E0,-4.806191581E-1
1.183189907E1,1.255588531E-1,2.228038311E-1,3.597735286E0,3.547319685E-1,9.053192139E-1,1.534576416E-1,2.977118356E0,9.390278408E0,-4.871150426E-1
1.185158291E1,-2.325290442E-1,5.167028904E-1,3.165414929E0,3.360181536E-1,8.362317766E-1,1.216539655E-1,2.984987531E0,9.322899955E0,-3.937443324E-1
1.187129726E1,-9.495106936E-1,5.009913445E-1,2.013993025E0,3.023856027E-1,8.007703509E-1,8.589172363E-2,3.067413330E0,9.260988508E0,-2.316218785E-1
1.189098110E1,-1.705846310E0,2.496545315E-1,9.580871165E-1,2.780369350E-1,7.887507847E-1,4.054042271E-2,3.092381069E0,9.147779192E0,-1.656079973E-1
1.191069546E1,-2.176558018E0,-6.227493286E-3,3.242647052E-1,2.425798689E-1,7.793099540E-1,-2.982003348E-3,3.100250244E0,9.043121338E0,-1.115700858E-1
1.193037930E1,-2.144875646E0,-7.182526588E-2,2.660185397E-1,2.135162354E-1,7.648555211E-1,-3.965977260E-2,3.080071586E0,9.030465262E0,-1.467960903E-1
1.195009365E1,-1.664991498E0,9.811306000E-2,5.120988786E-1,1.605529785E-1,7.335096087E-1,-7.603018624E-2,3.049628122E0,9.093739101E0,-1.361912319E-1
1.196977749E1,-9.307753444E-1,2.324366570E-1,8.161322773E-1,1.145935059E-1,6.755240304E-1,-1.157531738E-1,2.979171753E0,9.032858712E0,-1.639011928E-1
1.198949184E1,-1.187009811E-1,8.965086937E-2,1.137832820E0,7.578822545E-2,6.143515451E-1,-1.521214076E-1,2.977118356E0,8.970949445E0,-1.621856689E-1
1.200917568E1,5.225276947E-1,-9.221529961E-2,1.412787765E0,2.191598075E-2,5.493665423E-1,-1.793583461E-1,3.014057704E0,9.001730783E0,-2.708653041E-2
1.202889004E1,1.124786377E0,-2.902314663E-1,1.663231105E0,-2.389308384E-2,4.973231724E-1,-1.872732980E-1,3.123851231E0,9.332475935E0,1.425585066E-1
1.204860439E1,1.574462056E0,-4.945898056E-1,1.825817704E0,-1.202218192E-1,4.259490967E-1,-2.104056222E-1,3.110850743E0,9.884508405E0,2.390093122E-1
1.206828823E1,1.763055623E0,-6.465327740E-1,1.795850396E0,-1.736341204E-1,2.967485700E-1,-2.204502651E-1,3.013033186E0,1.012495204E1,-9.104701451E-2
1.208800259E1,1.641847014E0,-7.335147858E-1,1.509338528E0,-2.145734515E-1,1.051548549E-1,-2.079663958E-1,2.885454450E0,1.018481009E1,-2.230660575E-1
1.210768642E1,1.325573623E0,-7.687602043E-1,1.108716816E0,-2.305515834E-1,-1.599448068E-1,-1.817953927E-1,2.658349173E0,1.014889962E1,-3.068651472E-1
1.212740078E1,1.049151063E0,-6.292867661E-1,7.515837550E-1,-2.334442139E-1,-4.563969203E-1,-1.131613595E-1,2.596097674E0,9.860909598E0,-1.242218018E-1
1.214711514E1,9.949247837E-1,-2.990169525E-1,6.671617627E-1,-1.934182303E-1,-7.182944162E-1,-3.950500488E-2,2.566685268E0,9.403616769E0,-4.098074777E-4
1.216679897E1,1.146823883E0,-1.172561646E-1,8.736664653E-1,-9.221758161E-2,-8.800659180E-1,3.460693359E-2,2.712387085E0,9.039014544E0,1.408473424E-1
1.218648281E1,1.280223668E0,-3.781273365E-1,9.142181277E-1,5.174909319E-3,-8.653041295E-1,1.030861991E-1,3.132056100E0,9.098870414E0,6.699698312E-1
1.220619717E1,1.220436573E0,-8.018090725E-1,7.537099421E-1,1.065259661E-1,-6.517944336E-1,1.575666155E-1,3.603031703E0,9.501438686E0,1.396436419E0
1.222588100E1,1.077529609E0,-1.004444599E0,7.193365693E-1,1.880972726E-1,-2.468414307E-1,2.056557792E-1,4.053484235E0,1.007501875E1,2.023032052E0
1.224559536E1,9.232182503E-1,-9.949114323E-1,7.317348123E-1,2.669241769E-1,2.536795480E-1,2.624184745E-1,4.369517735E0,1.067254639E1,2.383191790E0
1.226527920E1,7.516840696E-1,-8.614597321E-1,7.735209763E-1,3.046657017E-1,6.840493338E-1,3.505314418E-1,4.300083705E0,1.125604684E1,2.597981044E0
1.228499355E1,6.370194554E-1,-7.060854435E-1,7.864038646E-1,2.725590297E-1,8.993879046E-1,4.432111468E-1,3.721372332E0,1.167673819E1,2.639711652E0
1.230467739E1,5.303454399E-1,-6.667957306E-1,7.363854051E-1,2.395346505E-1,8.526654925E-1,5.275203160E-1,2.912133353E0,1.154403251E1,2.331545149E0
1.232439175E1,3.209905028E-1,-7.310492992E-1,6.270992160E-1,2.167053223E-1,6.140463693E-1,5.996507917E-1,2.159325736E0,1.098037066E1,1.999435425E0
1.234410610E1,8.283048868E-2,-7.376084328E-1,6.176643670E-1,2.059020996E-1,3.042013986E-1,6.323721749E-1,1.673647199E0,1.039892142E1,1.962151664E0
1.236378994E1,-1.169123054E-1,-5.881314278E-1,5.947400630E-1,1.935729980E-1,1.841081892E-2,6.291765485E-1,1.445175171E0,9.848595755E0,2.120511736E0
1.238350430E1,-1.857402921E-1,-4.753608704E-1,6.006932855E-1,1.642041888E-1,-1.810956682E-1,6.019352504E-1,1.444488525E0,9.452527727E0,2.538811820E0
1.240321865E1,-1.944699883E-1,-5.159361362E-1,7.379865348E-1,9.724426270E-2,-3.034515381E-1,5.722569057E-1,1.620976039E0,9.158041818E0,2.915727888E0
1.242290249E1,-3.154453039E-1,-5.625584126E-1,7.742617726E-1,2.556937081E-2,-3.509325300E-1,5.308663504E-1,1.763942174E0,8.793097360E0,3.006713867E0
1.244258633E1,-5.310255289E-1,-4.754688740E-1,7.512227297E-1,-2.100045340E-2,-3.293217250E-1,4.713636126E-1,1.838845389E0,8.343327114E0,3.042277745E0
1.246230068E1,-7.629022002E-1,-2.835392952E-1,5.823293030E-1,-4.184831892E-2,-2.602299282E-1,4.107971191E-1,1.918537685E0,7.886374337E0,2.987899780E0
1.248198452E1,-9.887425900E-1,-1.039927006E-1,4.420834184E-1,-5.691310338E-2,-1.521846226E-1,3.439897810E-1,1.933589390E0,7.625069754E0,3.015601022E0
1.250169888E1,-1.167749882E0,9.110069275E-2,4.926723242E-1,-8.187212263E-2,-4.504830497E-2,2.723105294E-1,1.980446952E0,7.476627895E0,2.967034476E0
1.252138271E1,-1.349112391E0,4.001333714E-1,5.728918910E-1,-1.037837437E-1,4.184395926E-2,1.852656773E-1,1.918882098E0,7.425661360E0,2.948222569E0
1.254106655E1,-1.494680882E0,7.296583652E-1,7.295705378E-1,-1.091156006E-1,7.806614467E-2,8.193097796E-2,1.887756348E0,7.426690238E0,2.758736747E0
1.256078091E1,-1.643777490E0,7.671682835E-1,8.702669144E-1,-1.094142369E-1,7.836914062E-2,-3.128705706E-2,1.935642787E0,7.581970215E0,2.529918126E0
1.258049526E1,-1.857589006E0,5.878942013E-1,8.236107528E-1,-1.153499058E-1,6.817190988E-2,-1.539459229E-1,2.088869367E0,7.900743757E0,2.419788906E0
1.260017910E1,-1.997622848E0,4.391500950E-1,6.939320266E-1,-1.104801723E-1,7.517133440E-2,-2.717328753E-1,2.372068133E0,8.172317505E0,2.272373744E0
1.261989346E1,-2.004453421E0,5.329949856E-1,5.296155214E-1,-1.015014648E-1,1.116965158E-1,-3.791743687E-1,2.653217861E0,8.348460606E0,2.195072719E0
1.263960781E1,-1.934191942E0,7.695461512E-1,5.896846652E-1,-8.141435896E-2,1.520211356E-1,-4.761112758E-1,2.912819999E0,8.295442854E0,2.042530605E0
1.265929165E1,-1.902773142E0,9.466065168E-1,6.291459799E-1,-2.952139718E-2,1.865692139E-1,-5.704629081E-1,3.033211844E0,8.144267491E0,1.864334106E0
1.267900600E1,-1.976903319E0,1.132752419E0,5.382278860E-1,2.495901925E-2,2.133527483E-1,-6.569039481E-1,3.167286464E0,7.997876848E0,1.684084211E0
1.269868984E1,-1.806443214E0,1.425567746E0,5.172771811E-1,8.644104004E-2,2.421133859E-1,-7.395368304E-1,3.317437308E0,7.921264648E0,1.570872716E0
1.271840420E1,-1.033966303E0,1.820159435E0,7.468094826E-1,1.454881941E-1,3.008597238E-1,-8.230830601E-1,3.486742292E0,7.910661970E0,1.544536046E0
1.273808804E1,-6.150072813E-1,1.791539073E0,8.413487673E-1,2.191401890E-1,4.460383824E-1,-9.286978585E-1,3.781912667E0,8.149396624E0,1.581130981E0
1.275780239E1,-6.526457071E-1,1.505243540E0,3.700869381E-1,2.911224365E-1,7.134225028E-1,-1.078138079E0,4.157117571E0,8.969924927E0,1.656380790E0
1.277748623E1,-8.501514196E-1,1.532491565E0,-2.775778472E-1,3.276476179E-1,1.075306484E0,-1.259689331E0,4.601758684E0,1.039242336E1,1.831839425E0
1.279717007E1,-6.433017254E-1,1.946693182E0,-3.642472923E-1,2.871660505E-1,1.469604492E0,-1.427396502E0,5.084699358E0,1.210940770E1,2.135905675E0
1.281688442E1,-7.170224190E-2,1.989223957E0,-1.444137692E-1,1.424429757E-1,1.750074114E0,-1.494504656E0,5.634682792E0,1.333421108E1,2.508374895E0
1.283659878E1,4.677269459E-1,1.332489967E0,1.068899035E-2,-5.326407296E-2,1.863906860E0,-1.386304583E0,6.084450858E0,1.344810486E1,2.668786185E0
1.285628262E1,8.192833662E-1,3.157553673E-1,-1.478914022E-1,-2.113778251E-1,1.804101127E0,-1.097614833E0,6.333788191E0,1.209025574E1,2.310679844E0
1.287596645E1,9.032136202E-1,-5.948884487E-1,-4.119701982E-1,-2.599225725E-1,1.643851144E0,-7.057495117E-1,6.085477557E0,1.026176453E1,1.535642351E0
1.289568081E1,8.664431572E-1,-1.129073858E0,-5.995163620E-1,-2.005724226E-1,1.436732701E0,-2.875605992E-1,5.447934832E0,8.834479196E0,8.166961670E-1
1.291539516E1,9.847480655E-1,-1.144686699E0,-5.714313984E-1,-9.648350307E-2,1.243157523E0,9.471784319E-2,4.699918474E0,8.356667655E0,4.445691790E-1
1.293510952E1,1.365192115E0,-8.378982544E-1,-2.121357918E-1,-7.274082729E-2,1.102545602E0,4.342324393E-1,4.210130964E0,8.787281581E0,6.942531041E-1
1.295479336E1,1.859793365E0,-7.059407234E-1,1.806645095E-1,-1.215907506E-1,1.049431937E0,7.334202358E-1,4.108551025E0,9.727857317E0,1.033203125E0
1.297450771E1,2.232592404E0,-8.743579388E-1,2.451409996E-1,-2.202039446E-1,9.687783378E-1,1.007036482E0,4.096921648E0,1.051281520E1,9.141802107E-1
1.299419155E1,2.216409206E0,-1.052466631E0,-3.306844831E-2,-3.250536237E-1,8.010755266E-1,1.245659964E0,3.978576660E0,1.089828491E1,5.889042446E-1
1.301390591E1,1.996355951E0,-9.133462906E-1,-4.473384321E-1,-4.171251569E-1,5.291290283E-1,1.438925607E0,3.588664464E0,1.094343131E1,1.432451521E-1
1.303358974E1,1.804921865E0,-4.441969395E-1,-8.043878078E-1,-4.956512451E-1,1.369585310E-1,1.598868234E0,3.120426723E0,1.069546073E1,-1.574031285E-1
1.305327358E1,1.733841836E0,8.890604973E-2,-9.797634482E-1,-5.282200405E-1,-3.284127372E-1,1.729596819E0,2.673058646E0,1.024466596E1,-5.531267439E-1
1.307298794E1,1.903316915E0,3.923931122E-1,-9.838480055E-1,-5.171116420E-1,-7.936270578E-1,1.839468820E0,2.430212838E0,9.633119856E0,-7.470572335E-1
1.309267178E1,2.263871312E0,4.188656807E-1,-9.107814431E-1,-4.600372314E-1,-1.179554531E0,1.901103428E0,2.318370274E0,9.189847674E0,-9.218314035E-1
1.311238613E1,2.660831034E0,1.796820164E-1,-7.848884165E-1,-4.092058454E-1,-1.415891375E0,1.919206892E0,2.407642909E0,8.886128017E0,-7.795497349E-1
1.313206997E1,2.947515249E0,-1.482834816E-1,-8.067398965E-1,-3.659951346E-1,-1.482851301E0,1.897757394E0,2.650822231E0,8.706560407E0,-5.442330497E-1
1.315178432E1,3.031074882E0,-4.767801762E-1,-8.908977807E-1,-3.182089669E-1,-1.394130162E0,1.825162615E0,2.826625279E0,8.512974330E0,-3.896397182E-1
1.317146816E1,2.999736130E0,-7.807898521E-1,-9.458084702E-1,-2.745339530E-1,-1.197664533E0,1.714529855E0,2.909055437E0,8.391893659E0,-3.561183384E-1
1.319121304E1,2.935893357E0,-8.721210957E-1,-9.237087667E-1,-2.532261440E-1,-9.444340297E-1,1.579696655E0,2.892636980E0,8.403525216E0,-3.516736712E-1
1.321089687E1,2.919538200E0,-6.925151348E-1,-6.948244572E-1,-2.710309710E-1,-6.991206578E-1,1.424471174E0,2.751379830E0,8.493135725E0,-3.116542271E-1
1.323061123E1,2.907768846E0,-3.891539574E-1,-4.021044075E-1,-2.985752651E-1,-5.111781529E-1,1.238204956E0,2.444580078E0,8.479110718E0,-3.934020996E-1
1.325029507E1,2.746042430E0,-4.011034966E-1,-3.635593355E-1,-3.148585728E-1,-3.985661098E-1,1.034890311E0,2.165485927E0,8.533837455E0,-4.833526611E-1
1.327000767E1,2.448603928E0,-3.893496990E-1,-4.154384434E-1,-3.582327706E-1,-3.673640660E-1,8.276171003E-1,1.927431379E0,8.853635515E0,-4.214433943E-1
1.328972203E1,2.166422546E0,-3.165550232E-1,-4.928782582E-1,-4.318847656E-1,-3.979579381E-1,6.168518066E-1,1.789252145E0,9.265439715E0,-3.106275286E-1
1.330943638E1,1.835982502E0,-3.286747932E-1,-6.540959775E-1,-5.104130336E-1,-4.582170759E-1,4.308842250E-1,1.798488072E0,9.567450387E0,-6.163460868E-2
1.332912022E1,1.512937546E0,-3.912358284E-1,-7.462219596E-1,-5.851331438E-1,-5.031127930E-1,2.497885568E-1,1.893229893E0,9.772665841E0,2.537209647E-1
1.334880406E1,1.210410416E0,-4.709146023E-1,-8.287382722E-1,-5.854339600E-1,-5.480063302E-1,-3.287179129E-3,1.810801915E0,1.039208112E1,1.600014823E-1
1.336851841E1,1.056572258E0,-4.532687664E-1,-8.789759278E-1,-5.758492606E-1,-6.315547398E-1,-3.455418178E-1,1.607633318E0,1.181765529E1,-1.187547956E-1
1.338820225E1,1.041933537E0,-2.026417255E-1,-9.462355673E-1,-6.149597168E-1,-8.082340785E-1,-6.801866804E-1,1.589510236E0,1.314780753E1,-3.557739258E-1
1.340791661E1,1.156786263E0,7.282495499E-2,-9.618778229E-1,-6.408320836E-1,-1.116252354E0,-9.192635672E-1,1.724264962E0,1.333181981E1,-4.067382812E-1
1.342760045E1,1.198579788E0,8.441758156E-2,-1.078600287E0,-5.565185547E-1,-1.494417463E0,-1.083770752E0,1.923668998E0,1.232386126E1,-3.085784912E-1
1.344731480E1,1.200456977E0,1.290793419E-1,-1.264295995E0,-3.860822405E-1,-1.762259347E0,-1.184969221E0,2.382670811E0,1.105322048E1,2.465362549E-1
1.346702916E1,1.204814970E0,5.090336800E-1,-1.387049377E0,-2.112208775E-1,-1.765147618E0,-1.201104300E0,3.189176287E0,9.928974697E0,1.227133615E0
1.348674351E1,1.161367476E0,5.862143040E-1,-1.497564882E0,-5.873761858E-2,-1.448612758E0,-1.164119176E0,4.060324533E0,9.021227155E0,2.482720511E0
1.350642735E1,1.061579704E0,2.724199295E-1,-1.753271967E0,4.322160993E-2,-9.199349540E-1,-1.095336914E0,4.747802734E0,8.461672102E0,3.559770857E0
1.352614170E1,1.041077137E0,7.410597801E-2,-1.861932814E0,5.204772949E-2,-2.768205915E-1,-1.022136143E0,5.102144514E0,8.462014335E0,4.367298671E0
1.354582554E1,1.142659187E0,2.425243855E-1,-1.723730117E0,-2.556501116E-2,3.008575439E-1,-9.818071638E-1,4.970118931E0,8.807120187E0,4.451437814E0
1.356553990E1,1.057969272E0,3.994174004E-1,-1.776479423E0,-1.162632533E-1,6.905953544E-1,-9.932229178E-1,4.324371338E0,9.074929374E0,3.763617379E0
1.358522374E1,7.826449871E-1,6.020758152E-1,-2.039711118E0,-2.092459542E-1,7.959027972E-1,-1.025789533E0,3.501789638E0,9.069113595E0,2.841169085E0
1.360490757E1,5.469590425E-1,9.701232910E-1,-2.047561944E0,-2.821437291E-1,6.224169050E-1,-1.086055211E0,2.675792149E0,8.912802560E0,2.018247332E0
1.362462193E1,3.853041530E-1,1.231038809E0,-1.705873519E0,-3.267320905E-1,2.355760847E-1,-1.147077288E0,2.078608922E0,8.759916033E0,1.556505476E0
1.364430577E1,1.841032505E-1,1.107147455E0,-1.585390598E0,-3.670588902E-1,-2.440992083E-1,-1.191968645E0,1.849448068E0,8.749997820E0,1.519226074E0
1.366402012E1,-5.280959606E-2,7.332966328E-1,-1.323006034E0,-4.076865060E-1,-7.182965960E-1,-1.202928816E0,2.011228289E0,8.938459124E0,1.751807077E0
1.368370396E1,-5.085057616E-1,5.399889946E-1,-1.177566618E0,-4.396449498E-1,-1.085660662E0,-1.179641724E0,2.429188320E0,9.178562709E0,2.001484462E0
1.370341832E1,-8.816930652E-1,7.972459793E-1,-8.582363427E-1,-4.548666818E-1,-1.276188442E0,-1.135205950E0,2.958648682E0,9.240807670E0,2.299392700E0
1.372310215E1,-1.114064574E0,1.331487417E0,-5.871747136E-1,-4.417811802E-1,-1.321694510E0,-1.075707572E0,3.481955392E0,9.106392997E0,2.571988787E0
1.374281651E1,-1.468601048E0,1.894415617E0,-1.560353935E-1,-4.180385045E-1,-1.237690517E0,-1.012704032E0,3.884521484E0,9.023622785E0,2.808674404E0
1.376253086E1,-1.991504192E0,2.174042940E0,1.002295315E-1,-3.993203299E-1,-1.032248361E0,-9.341779436E-1,4.284009661E0,8.891941616E0,3.023812430E0
1.378224522E1,-2.569429040E0,2.262745857E0,1.693628430E-1,-3.763405936E-1,-7.176862444E-1,-8.457619803E-1,4.560716902E0,8.746579851E0,3.195506505E0
1.380192906E1,-3.047058105E0,2.266863108E0,4.747759700E-1,-3.515363421E-1,-3.901933943E-1,-7.518615723E-1,4.643482753E0,8.632343837E0,3.208164760E0
1.382161290E1,-3.242293119E0,2.287246943E0,9.594408870E-1,-3.256639753E-1,-1.403132847E-1,-6.494445801E-1,4.503936768E0,8.576248169E0,3.061776297E0
1.384132725E1,-3.264163613E0,2.233600855E0,1.229207098E0,-3.022308350E-1,-1.765877860E-2,-5.450504848E-1,4.187218802E0,8.527339390E0,2.790549142E0
1.386101109E1,-3.388535500E0,2.173394680E0,1.513823867E0,-2.701176235E-1,1.482282366E-4,-4.497876848E-1,3.796279907E0,8.593695504E0,2.474171230E0
1.388072545E1,-3.600269794E0,2.018191338E0,1.945203781E0,-2.348131452E-1,-4.307120187E-2,-3.578665597E-1,3.541466849E0,8.788306100E0,2.278529576E0
1.390040928E1,-3.857421994E0,1.739956975E0,1.950775027E0,-2.230987549E-1,-1.161193848E-1,-2.533198765E-1,3.517523629E0,9.091003418E0,2.326071603E0
1.392012364E1,-4.131961703E0,1.643712759E0,1.742394954E0,-2.352687291E-1,-1.841408866E-1,-1.259438651E-1,3.631761823E0,9.220288958E0,2.547363281E0
1.393983799E1,-4.280666232E0,1.475742936E0,1.506098837E0,-2.272055490E-1,-2.084939139E-1,9.037562779E-3,3.744288853E0,8.984287807E0,2.620901925E0
1.395952183E1,-4.290119290E0,1.157989264E0,1.405239820E0,-1.824602400E-1,-1.779065813E-1,1.318490165E-1,3.719665527E0,8.589930943E0,2.508372716E0
1.397920567E1,-4.223428130E0,9.388917685E-1,1.529646516E0,-1.336124965E-1,-1.208365304E-1,2.382223947E-1,3.638946533E0,8.336488996E0,2.479984828E0
1.399892002E1,-3.986758709E0,6.769808531E-1,1.520556033E0,-1.001325335E-1,-6.254795619E-2,3.222263881E-1,3.542493548E0,8.273553031E0,2.489220755E0
1.401860386E1,-3.689602017E0,5.049202442E-1,1.447227925E0,-8.521815709E-2,-1.293945312E-2,3.777727400E-1,3.459718977E0,8.316303798E0,2.536418370E0
1.403831822E1,-3.338008165E0,3.766556978E-1,1.233920306E0,-7.837132045E-2,2.784729004E-2,4.194706508E-1,3.399183001E0,8.437728882E0,2.589093890E0
1.405803257E1,-2.877609372E0,4.693403244E-1,1.108587950E0,-7.487051828E-2,6.102207729E-2,4.628404890E-1,3.362585885E0,8.538626535E0,2.605852400E0
1.407771641E1,-2.423785686E0,6.954822540E-1,1.047569513E0,-7.274082729E-2,8.658490862E-2,5.162549700E-1,3.342402867E0,8.518447876E0,2.577122280E0
1.409743077E1,-2.059483051E0,8.407895565E-1,8.630290031E-1,-5.295889718E-2,1.031755720E-1,5.622144427E-1,3.235693795E0,8.431573050E0,2.490243094E0
1.411711461E1,-1.683247924E0,1.000164032E0,6.743763983E-1,-3.241402762E-2,9.115164621E-2,6.081760951E-1,3.126244681E0,8.373428345E0,2.502214704E0
1.413682896E1,-1.241030693E0,1.076713562E0,4.757739604E-1,-2.115086147E-2,4.519653320E-2,6.568712507E-1,3.015084403E0,8.456200736E0,2.480669294E0
1.415651280E1,-8.589695692E-1,9.990289211E-1,2.363550961E-1,-1.719447545E-2,-1.126534598E-2,7.115064348E-1,3.005508423E0,8.549231393E0,2.489905221E0
1.417622715E1,-4.716634750E-1,8.348243237E-1,1.454341412E-2,4.555838449E-4,-3.804670061E-2,7.941393171E-1,3.107772827E0,8.524943760E0,2.545658657E0
1.419591099E1,4.781961441E-3,5.925633907E-1,-1.192405820E-1,1.917593820E-2,-3.119986398E-2,8.865116664E-1,3.212777274E0,8.423019409E0,2.678359985E0
1.421562535E1,3.951920271E-1,3.877317905E-1,-2.314536572E-1,5.722045898E-2,2.191162109E-2,9.755401611E-1,3.207299369E0,8.343329293E0,2.668441772E0
1.423530918E1,7.717967033E-1,2.047097683E-1,-2.791165113E-1,1.010524205E-1,6.147766113E-2,1.058173043E0,3.157368251E0,8.374110631E0,2.645525251E0
1.425502354E1,1.107772291E0,9.420371056E-2,-3.494787812E-1,1.479208810E-1,4.900033133E-2,1.148108346E0,3.092383248E0,8.473641532E0,2.498454503E0
1.427470738E1,1.391932249E0,-3.324031830E-3,-4.168276191E-1,1.932700021E-1,9.586879185E-3,1.217202323E0,3.039367676E0,8.536570958E0,2.361984253E0
1.429439122E1,1.698720157E0,-6.034970284E-2,-4.351652265E-1,2.466888428E-1,-3.350394113E-3,1.261938913E0,3.021240234E0,8.634395054E0,2.350012643E0
1.431410557E1,1.941767156E0,-7.353687286E-2,-4.909479022E-1,2.964477539E-1,1.232256208E-2,1.282788958E0,3.022606986E0,8.780439104E0,2.379427229E0
1.433381993E1,2.175542176E0,-1.093816757E-2,-4.678426981E-1,3.297751290E-1,4.869515555E-2,1.277160645E0,3.021922520E0,9.016782488E0,2.474855695E0
1.435353428E1,2.331965089E0,1.304221153E-2,-4.553430676E-1,3.396693638E-1,9.602137974E-2,1.259966169E0,3.058521816E0,9.143674578E0,2.591485160E0
1.437321812E1,2.334663749E0,-1.980352402E-1,-5.725721717E-1,3.600594657E-1,1.559818813E-1,1.234852382E0,3.102985927E0,9.032518659E0,2.640740531E0
1.439293248E1,2.334590375E0,-4.654970169E-1,-6.612521410E-1,3.952135359E-1,2.136579241E-1,1.199853080E0,3.065702166E0,8.766074044E0,2.554888044E0
1.441261631E1,2.313904285E0,-5.675280094E-1,-6.761096120E-1,4.466509138E-1,2.404458182E-1,1.161503383E0,3.096827916E0,8.547177996E0,2.394821167E0
1.443233067E1,2.240406096E0,-5.788753033E-1,-6.779689193E-1,5.137656076E-1,2.603759766E-1,1.110371181E0,3.221326556E0,8.503053938E0,2.213884626E0
1.445201451E1,2.143951476E0,-5.906355381E-1,-6.719461679E-1,5.871124268E-1,3.064902169E-1,1.024996076E0,3.420732771E0,8.638499669E0,2.165315901E0
1.447172886E1,1.990070224E0,-5.661766529E-1,-6.578972340E-1,6.513366699E-1,3.739035470E-1,9.073617118E-1,3.587982178E0,8.730499268E0,2.213888986E0
1.449141270E1,1.814990997E0,-4.715778828E-1,-7.446758151E-1,7.141854422E-1,4.189496722E-1,7.515280587E-1,3.665623256E0,8.814985003E0,2.088361468E0
1.451112706E1,1.632734358E0,-2.517585754E-1,-7.185819745E-1,7.761252267E-1,4.719085693E-1,5.342145647E-1,3.679643903E0,8.937430246E0,1.965916225E0
1.453081089E1,1.498739421E0,-8.498740196E-2,-6.506617665E-1,8.114275251E-1,6.364157540E-1,2.765742711E-1,4.032278878E0,9.234311785E0,1.966596331E0
1.455052525E1,1.392891407E0,-1.462545395E-1,-4.985198379E-1,8.082362584E-1,9.374280657E-1,3.901672363E-2,4.754298619E0,9.553083147E0,2.124618530E0
1.457020909E1,1.392913043E0,-3.252871037E-1,-3.947413564E-1,7.873840332E-1,1.247423444E0,-1.769256592E-1,5.091197423E0,9.554452079E0,2.215938023E0
1.458992344E1,1.356044114E0,-2.119219303E-1,-1.266153455E-1,7.904314314E-1,1.426993234E0,-3.980429513E-1,5.045368740E0,9.351283482E0,1.862967355E0
1.460960728E1,1.123284876E0,-2.123501301E-1,-5.232781172E-2,8.103637695E-1,1.444647653E0,-6.319471087E-1,4.738911220E0,9.304085868E0,1.324268886E0
1.462932164E1,7.743254900E-1,-3.215968609E-1,-9.775149822E-2,7.889055525E-1,1.366882324E0,-8.608267648E-1,4.651349749E0,9.697418213E0,1.018833705E0
1.464903599E1,4.053191543E-1,-2.472169399E-1,4.850137234E-2,7.155565534E-1,1.277097430E0,-1.048616682E0,4.854516166E0,1.010956464E1,1.182327271E0
1.466871983E1,1.757955551E-2,-1.740155220E-1,3.822922707E-2,6.072038923E-1,1.178484235E0,-1.166098458E0,5.211933681E0,1.003055682E1,1.394042969E0
1.468843418E1,-2.602996230E-1,-1.307837963E-1,-1.187288761E-2,5.043269566E-1,1.097372872E0,-1.222555978E0,5.453410557E0,9.458683559E0,1.489129203E0
1.470811802E1,-4.240264893E-1,-6.256008148E-2,7.508969307E-2,4.387337821E-1,1.058410645E0,-1.239146641E0,5.539600917E0,8.661073957E0,1.334189279E0
1.472783238E1,-4.253897667E-1,-3.422260284E-2,1.110106111E-1,4.146968297E-1,1.053235735E0,-1.239151001E0,5.403470721E0,7.973937988E0,1.121786935E0
1.474751622E1,-3.939216137E-1,1.607630253E-1,3.358056545E-1,4.267142160E-1,1.024324690E0,-1.237470354E0,5.173969814E0,7.548110962E0,9.644535610E-1
1.476723057E1,-4.324262142E-1,2.785809040E-1,4.213967919E-1,4.391937256E-1,9.508209229E-1,-1.238538470E0,4.988935198E0,7.514593942E0,9.309409005E-1
1.478691441E1,-5.308378935E-1,2.448024750E-1,4.110060334E-1,4.099753244E-1,8.587515695E-1,-1.223015921E0,5.046391078E0,7.831649780E0,1.115291051E0
1.480662877E1,-6.028999686E-1,2.506384850E-1,4.871306419E-1,3.326677595E-1,8.092934745E-1,-1.183297294E0,5.244426182E0,8.154867990E0,1.528119768E0
1.482631260E1,-6.112020016E-1,3.360245228E-1,4.520727992E-1,2.377057757E-1,8.228389195E-1,-1.114663260E0,5.495474679E0,8.252005441E0,1.783612932E0
1.484599644E1,-5.642778873E-1,3.971130848E-1,3.681401014E-1,1.549224854E-1,8.636234828E-1,-1.018179757E0,5.554308210E0,8.115879604E0,1.758645194E0
1.486571080E1,-5.751903653E-1,4.768192768E-1,3.025010228E-1,9.435381208E-2,8.713814872E-1,-9.276319231E-1,5.331303188E0,8.037211827E0,1.518541609E0
1.488539463E1,-6.445225477E-1,5.437207222E-1,2.451562285E-1,4.733058384E-2,8.283146449E-1,-8.670632499E-1,4.971832275E0,8.205832345E0,1.182667324E0
1.490513951E1,-6.679642200E-1,4.449427128E-1,1.089428663E-1,8.828299386E-3,7.074868338E-1,-8.279549735E-1,4.645878383E0,8.637813023E0,8.652648926E-1
1.492482334E1,-6.931766272E-1,2.320671082E-1,1.916152239E-2,-4.124014718E-2,5.011269706E-1,-8.007136754E-1,4.402008057E0,9.158379691E0,7.448752267E-1
1.494453770E1,-5.958684087E-1,-4.665684700E-2,2.422928810E-4,-9.374128069E-2,2.477460589E-1,-7.644958496E-1,4.336000715E0,9.563003540E0,6.703120640E-1
1.496422154E1,-4.628163576E-1,8.171010017E-2,1.427076459E-1,-1.346762521E-1,5.778721401E-3,-7.113865444E-1,4.448529925E0,9.726148333E0,7.383749826E-1
1.498393589E1,-2.920619845E-1,3.739144802E-1,3.331041932E-1,-1.546107701E-1,-1.724221366E-1,-6.176409040E-1,4.708469936E0,9.680317470E0,8.553466797E-1
1.500361973E1,-2.075029016E-1,3.501522541E-1,3.611852527E-1,-1.526336670E-1,-2.567356655E-1,-4.831150600E-1,4.961571830E0,9.457996913E0,9.699271066E-1
1.502333409E1,-2.474787235E-1,-1.481914520E-2,2.392606139E-1,-1.182447161E-1,-2.591661726E-1,-3.193686349E-1,5.142846244E0,9.176167079E0,9.329877581E-1
1.504301793E1,-3.494210243E-1,-4.682409763E-1,-9.251695871E-2,-5.523681641E-2,-1.982966832E-1,-1.443590437E-1,5.179443359E0,8.902202061E0,8.707362584E-1
1.506273228E1,-4.750300646E-1,-7.081339359E-1,-2.260690331E-1,3.439331055E-2,-7.867867606E-2,1.954214914E-2,5.156524658E0,8.617976597E0,8.088313511E-1
1.508241612E1,-4.422640204E-1,-7.080023289E-1,-1.631162763E-1,1.436571394E-1,8.506556920E-2,1.508745466E-1,5.108644758E0,8.476715088E0,7.920706613E-1
1.510213047E1,-1.540992856E-1,-5.468714237E-1,6.700050831E-2,2.450147356E-1,2.929447719E-1,2.468981062E-1,5.134294782E0,8.538628714E0,8.847612653E-1
1.512181431E1,3.041340113E-1,-2.731654644E-1,5.104880929E-1,3.128858294E-1,5.222821917E-1,3.207048689E-1,5.164736067E0,8.805409023E0,1.134440831E0
1.514149815E1,7.136945128E-1,-7.899641991E-2,1.009914279E0,3.440791539E-1,7.255924770E-1,3.932931083E-1,5.181836809E0,8.975396293E0,1.304090227E0
1.516121251E1,8.067383170E-1,-3.078281879E-1,1.136846662E0,3.807569231E-1,9.101889474E-1,4.576677595E-1,5.037841797E0,8.913487026E0,1.235340663E0
1.518089634E1,5.365051031E-1,-5.617909431E-1,8.164371252E-1,4.134739467E-1,1.084588187E0,4.944959368E-1,4.842202323E0,8.929223197E0,1.176511492E0
1.520064122E1,1.548590064E-1,-4.380354881E-1,6.407684088E-1,4.244341169E-1,1.237224034E0,5.185416085E-1,4.653403146E0,8.988736834E0,1.088612148E0
1.522032505E1,-3.088080883E-2,-5.616164207E-2,7.603669763E-1,4.323468890E-1,1.350296021E0,5.301077706E-1,4.429373605E0,8.969584874E0,9.285409110E-1
1.524003941E1,-1.597291231E-2,1.555862427E-1,9.822561741E-1,4.402618408E-1,1.420144217E0,5.194527762E-1,4.197479248E0,8.915200370E0,8.156716483E-1
1.525972325E1,-8.868640661E-2,-2.140526772E-1,7.844431400E-1,4.343239920E-1,1.440538679E0,4.914528983E-1,3.968318394E0,8.827638899E0,7.527378627E-1
1.527943760E1,-7.288992405E-3,-5.903983116E-1,8.672317863E-1,4.221496582E-1,1.419688634E0,4.492994036E-1,3.790804182E0,8.783861433E0,6.730521066E-1
1.529912144E1,1.341577172E-1,-6.508796215E-1,1.028560340E0,4.066292899E-1,1.397319249E0,3.957301549E-1,3.758313860E0,8.825929914E0,6.282392229E-1
1.531883580E1,3.099560738E-2,-8.134126663E-1,8.789928555E-1,3.831917899E-1,1.402339390E0,3.420104980E-1,3.814062936E0,9.105710711E0,5.533381871E-1
1.533851963E1,-8.133554459E-2,-9.135260582E-1,6.197274923E-1,3.366241455E-1,1.458036150E0,2.898123605E-1,3.930352347E0,9.308194842E0,5.694144113E-1
1.535823399E1,-2.815432549E-1,-1.091018438E0,-9.374982119E-2,3.139539446E-1,1.557259696E0,2.298518590E-1,3.984052386E0,9.317424229E0,4.688546317E-1
1.537791783E1,-1.078012526E0,-9.247405529E-1,-4.645391703E-1,3.169969831E-1,1.655720302E0,1.705038888E-1,3.975505284E0,9.301354545E0,3.378579276E-1
1.539763218E1,-6.140257716E-1,-5.995807648E-1,-4.460591376E-1,3.007093157E-1,1.698939732E0,1.309356689E-1,3.974818638E0,9.622517177E0,1.921517508E-1
1.541731602E1,1.472226322E0,-5.258321762E-1,1.252559125E-1,2.476021903E-1,1.673980713E0,1.280430385E-1,3.942668370E0,9.852700370E0,2.020743234E-1
1.543703038E1,3.574257314E0,-5.125980377E-1,1.185252339E0,2.109266009E-1,1.591958182E0,1.566532680E-1,3.847239903E0,9.695709229E0,9.510585240E-3
1.545671421E1,4.880017519E0,-6.331722736E-1,1.079235017E0,1.992078509E-1,1.490910121E0,1.966792515E-1,3.755578177E0,9.401907785E0,-1.320887974E-1
1.547642857E1,4.702032328E0,-1.547746658E-1,4.780728519E-1,1.810978481E-1,1.403254918E0,2.610473633E-1,3.761049543E0,9.307848249E0,-1.478249686E-1
1.549614293E1,4.693307996E0,1.427175999E-1,-1.999088526E-1,1.387895857E-1,1.329903739E0,3.488595145E-1,3.856475830E0,9.479208810E0,1.053510393E-2
1.551582676E1,4.670122981E0,-3.328533173E-1,-6.037937999E-1,9.632873535E-2,1.245136806E0,4.392547607E-1,3.807907104E0,9.601991926E0,7.114955357E-3
1.553554112E1,4.175872564E0,-8.083419800E-1,-1.033661574E0,8.750697545E-2,1.127657209E0,5.199105399E-1,3.608163016E0,9.747358050E0,-2.056274414E-1
1.555522496E1,4.143370152E0,-1.263315201E0,-2.282338977E0,9.405081613E-2,9.803444999E-1,5.984322684E-1,3.423126221E0,1.000900705E1,-2.630898612E-1
1.557493931E1,4.383312821E0,-1.583645821E0,-2.795017838E0,7.487705776E-2,8.091408866E-1,6.982639858E-1,3.351296561E0,1.032538278E1,-7.590157645E-3
1.559462315E1,4.967987776E0,-1.751683950E0,-2.517588854E0,4.991803850E-2,6.055210658E-1,8.134656634E-1,3.274682181E0,1.034111677E1,2.475629534E-1
1.561433751E1,5.695445776E0,-1.940491199E0,-2.485702991E0,6.102643694E-2,4.241245815E-1,9.556034633E-1,3.212435041E0,1.009349060E1,3.563276018E-1
1.563402134E1,5.341686130E0,-1.882354021E0,-2.919607520E0,8.613586426E-2,3.070962088E-1,1.101392473E0,3.100588117E0,9.710416521E0,6.217411586E-1
1.565370518E1,4.662150264E0,-1.589577675E0,-3.804420829E0,1.393999372E-1,2.243129185E-1,1.227399554E0,2.845777239E0,9.520932879E0,7.284545898E-1
1.567341954E1,5.052302241E0,-1.233011484E0,-4.355096102E0,1.658782959E-1,1.556767055E-1,1.334383283E0,2.697684152E0,9.675190517E0,9.989994594E-1
1.569310337E1,5.699337006E0,-8.445518017E-1,-4.294198871E0,1.917506627E-1,1.234152658E-1,1.407732282E0,2.694257464E0,1.007399205E1,1.227815901E0
1.571278721E1,6.045886517E0,-4.888119698E-1,-4.437228680E0,2.157919747E-1,1.529366629E-1,1.446535383E0,2.634746007E0,1.049879238E1,1.541802543E0
1.573250157E1,5.854186773E0,1.818701029E-1,-4.594085574E0,2.310115269E-1,1.737888881E-1,1.452015468E0,2.422690255E0,1.077036394E1,1.851335798E0
1.575221592E1,5.414618611E0,7.355412245E-1,-5.169231772E0,2.658604213E-1,1.492854527E-1,1.438624791E0,2.124099731E0,1.081038121E1,1.908111572E0
1.577193028E1,5.768050313E0,1.361431718E0,-5.258938670E0,3.008640834E-1,8.689226423E-2,1.384296962E0,1.824480329E0,1.075907898E1,2.011404855E0
1.579164463E1,6.930453539E0,1.951815248E0,-4.872214675E0,3.296247210E-1,5.660792759E-2,1.288269043E0,1.644230434E0,1.067630441E1,2.296314784E0
1.581132847E1,7.427902460E0,2.509903073E0,-4.673548341E0,3.472813198E-1,8.552115304E-2,1.188136509E0,1.674331665E0,1.059627424E1,2.681095668E0
1.583104283E1,6.844003677E0,3.324769378E0,-4.630115151E0,3.503199986E-1,1.349792480E-1,1.095001221E0,1.811824254E0,1.046801104E1,2.868528094E0
1.585072667E1,5.471264124E0,3.855961561E0,-5.093365669E0,3.422589983E-1,2.208099365E-1,9.881700788E-1,1.851501465E0,1.035001046E1,3.080930437E0
1.587041050E1,3.877403498E0,3.661907196E0,-5.458502293E0,2.978188651E-1,3.355538504E-1,8.586621966E-1,1.803619385E0,1.015710449E1,3.446557181E0
1.589012486E1,2.526294589E0,3.713034272E0,-5.051023483E0,2.545972552E-1,4.355381557E-1,7.162214007E-1,1.673304967E0,9.891348703E0,3.606970651E0
1.590980870E1,1.620564342E0,3.768244028E0,-4.655262589E0,2.157941546E-1,4.700796945E-1,5.644989014E-1,1.496132987E0,9.635853359E0,3.472549438E0
1.592952305E1,9.363030195E-1,3.325520515E0,-4.752914310E0,1.585758754E-1,4.399501256E-1,4.031873431E-1,1.335041591E0,9.556501116E0,3.332661220E0
1.594920689E1,2.104640007E-1,3.061893225E0,-4.793132544E0,1.080496652E-1,3.419451032E-1,2.485722133E-1,1.256709508E0,9.324268886E0,3.134628296E0
1.596892124E1,-4.156661034E-1,3.023962140E0,-4.661542773E0,6.224496024E-2,2.246159145E-1,8.741542271E-2,1.265605382E0,9.033540998E0,3.100082397E0
1.598860508E1,-1.491203785E0,2.963819265E0,-4.148182869E0,1.461138044E-2,1.246316092E-1,-9.657505580E-2,1.302544730E0,8.848504203E0,3.242019653E0
1.600831944E1,-2.577073693E0,2.843236446E0,-4.378744006E0,-2.282278878E-2,3.454153878E-2,-2.682320731E-1,1.463640485E0,8.627210345E0,3.265282767E0
1.602800328E1,-2.922073603E0,2.512808740E0,-5.101971984E0,-7.578386579E-2,-3.515842983E-2,-4.331948417E-1,1.664066860E0,8.480137416E0,3.223214286E0
1.604771763E1,-2.505863428E0,2.708072841E0,-4.544522166E0,-1.211373465E-1,-7.837785993E-2,-6.094229562E-1,1.870313372E0,8.389157976E0,3.087770735E0
