"timestamp","linear_acceleration x","linear_acceleration y","linear_acceleration z","gyroscope x","gyroscope y","gyroscope z","acceleration x","acceleration y","acceleration z"
6.246948300E-2,-7.812559605E-4,-2.228634119E-1,3.970109940E-1,8.679199219E-2,-6.730041504E-2,3.884582520E-2,4.635009766E-1,1.565304565E0,8.948403931E0
8.236694400E-2,1.648386717E-1,1.109417677E-1,-7.945728302E-2,-4.545974731E-2,-8.924484253E-2,2.137756348E-2,6.411552429E-1,1.578830719E0,9.825164795E0
1.022338870E-1,4.298491031E-2,-1.246672869E-1,5.395896435E-1,-1.663665771E-1,-7.273101807E-2,-1.724243164E-2,2.999763489E-1,9.024658203E-1,1.056077957E1
1.221008300E-1,-1.247510612E-1,-1.871438026E-1,8.040714264E-1,-9.126663208E-2,-8.578109741E-2,-2.416610718E-2,2.353363037E-1,8.910942078E-1,9.832344055E0
1.419677740E-1,-1.791861653E-1,1.929304004E-1,2.811107635E-1,-1.989364624E-2,-1.624832153E-1,-2.256774902E-2,4.466247559E-1,1.258602142E0,9.204463959E0
1.618347170E-1,-4.741527140E-3,3.949013650E-1,-2.116665840E-1,-1.514511108E-1,-2.224006653E-1,-2.735900879E-2,4.322586060E-1,1.109565735E0,9.710235596E0
1.817016600E-1,2.399133518E-1,6.988343596E-2,2.493138313E-1,-3.202934265E-1,-2.146797180E-1,-3.881072998E-2,2.503013611E-1,8.899002075E-1,1.028843689E1
2.015686040E-1,2.466440573E-1,-6.380912662E-2,8.418455124E-1,-3.011207581E-1,-1.259956360E-1,-5.426025391E-2,1.653060913E-1,1.165229797E0,1.000831604E1
2.214355470E-1,1.276256442E-1,1.278647780E-1,3.725306988E-1,-2.036476135E-1,-7.752990723E-2,-5.426025391E-2,2.987823486E-1,1.514781952E0,9.395999908E0
2.413024900E-1,2.248061746E-1,2.068531364E-1,-2.579700947E-1,-2.715568542E-1,-4.290771484E-2,-5.932235718E-2,6.106262207E-1,1.265789032E0,9.617462158E0
2.611694340E-1,1.515442878E-1,2.863304764E-1,2.072720528E-1,-3.988533020E-1,-1.627349854E-2,-9.127807617E-2,7.488899231E-1,9.599304199E-1,1.037462997E1
2.810363770E-1,-6.685785949E-2,4.842674732E-1,6.710147858E-1,-4.049835205E-1,2.740478516E-2,-1.083183289E-1,6.656951904E-1,1.062282562E0,1.024354553E1
3.009033200E-1,-1.285068691E-1,5.808686763E-1,2.147128582E-1,-4.156379700E-1,-7.484436035E-3,-9.526824951E-2,7.255477905E-1,1.164630890E0,9.527084351E0
3.207702640E-1,1.186776757E-1,7.470144928E-1,-2.021861076E-1,-5.557212830E-1,-2.905654907E-2,-7.423400879E-2,7.644538879E-1,1.170021057E0,9.670131683E0
3.406372070E-1,3.035560995E-1,1.063780040E0,1.021504402E-1,-6.915435791E-1,1.701736450E-2,-8.940887451E-2,5.370063782E-1,1.305892944E0,1.038839340E1
3.605041510E-1,2.269624025E-1,1.257247448E0,1.391723156E-1,-7.610473633E-1,1.038322449E-1,-9.819793701E-2,4.125061035E-1,1.374725342E0,1.012802505E1
3.803710940E-1,4.134661704E-1,1.104984403E0,-5.720734596E-2,-8.491973877E-1,2.106246948E-1,-7.050704956E-2,5.938644409E-1,1.462112427E0,9.606090546E0
4.002380370E-1,5.110933334E-1,7.447130233E-1,6.986618042E-2,-9.637145996E-1,4.029083252E-1,-5.612564087E-2,8.476524353E-1,1.694351196E0,9.792236328E0
4.201049810E-1,4.173727781E-1,1.404836085E-1,3.344578743E-1,-1.021766663E0,6.599006653E-1,-6.331634521E-2,8.117446899E-1,1.852966309E0,9.956245422E0
4.399719240E-1,2.810176425E-1,-3.107403964E-1,1.787524223E-1,-9.783630371E-1,7.824096680E-1,-6.756973267E-2,9.039154053E-1,1.717693329E0,9.800621033E0
4.598388670E-1,-5.363374203E-2,-2.734939903E-1,2.379977703E-1,-9.594497681E-1,8.460578918E-1,-6.518173218E-2,1.042182922E0,1.272968292E0,9.791042328E0
4.797058110E-1,-6.490166485E-2,-8.346150070E-2,2.737245560E-1,-1.046009064E0,8.463249207E-1,-1.043281555E-1,8.698005676E-1,5.379447937E-1,1.016873169E1
4.995727540E-1,1.143887304E-1,-1.440101564E-1,3.285074234E-1,-1.137355804E0,8.822784424E-1,-1.506690979E-1,6.872444153E-1,-1.868972778E-1,1.005200958E1
5.194396970E-1,5.659245029E-1,-7.242352366E-1,1.081283092E-1,-1.178363800E0,8.567123413E-1,-1.549263000E-1,1.730880737E-1,-4.783859253E-1,1.010408020E1
5.393066410E-1,8.206321597E-1,-1.323987007E0,2.393236160E-1,-1.165847778E0,9.784126282E-1,-1.613197327E-1,-7.411575317E-2,-4.777908325E-1,1.009450912E1
5.591735840E-1,7.333023548E-1,-1.431326866E0,1.886863708E-1,-1.123771667E0,1.182415009E0,-2.300224304E-1,-1.267852783E-1,-6.549606323E-1,1.024174881E1
5.790405280E-1,1.450792402E-1,-1.316278368E0,-1.160168648E-2,-1.053997040E0,1.158710480E0,-2.675819397E-1,1.216125488E-1,-1.355861664E0,1.001549911E1
5.989074710E-1,3.125721216E-2,-1.088839173E0,-3.665165901E-1,-1.013782501E0,9.318122864E-1,-2.505340576E-1,3.299064636E-1,-2.299781799E0,1.000592422E1
6.187438970E-1,5.552226305E-2,-9.750175476E-1,-3.079187870E-1,-9.914131165E-1,5.555076599E-1,-2.092514038E-1,1.479454041E-1,-2.789993286E0,1.010408401E1
6.386108400E-1,2.449313402E-1,-9.250316620E-1,-2.147052288E-1,-9.456062317E-1,2.961158752E-1,-1.629142761E-1,-5.535545349E-1,-2.983322144E0,9.762313843E0
6.584777830E-1,3.524619639E-1,-9.413306713E-1,-1.467425823E-1,-8.835525513E-1,1.381874084E-1,-1.320228577E-1,-1.027008057E0,-3.008464813E0,9.409168243E0
6.783447270E-1,4.758079052E-1,-1.028107226E0,-1.999633312E-1,-8.209724426E-1,5.962371826E-2,-1.093902588E-1,-1.150909424E0,-3.095249176E0,9.311008453E0
6.982116700E-1,4.731461108E-1,-1.122783601E0,-4.232232571E-1,-7.285537720E-1,-4.397201538E-2,-7.583236694E-2,-1.065914154E0,-3.243690491E0,9.312801361E0
7.180786130E-1,2.882918119E-1,-1.008037269E0,-4.156432152E-1,-6.084480286E-1,-1.726036072E-1,-2.070236206E-2,-9.599685669E-1,-3.463954926E0,9.361877441E0
7.379455570E-1,1.421654522E-1,-7.730312347E-1,-3.940944672E-1,-4.875411987E-1,-3.925743103E-1,3.682708740E-2,-8.546257019E-1,-3.724327087E0,9.313400269E0
7.578125000E-1,2.747725546E-1,-5.884433985E-1,-4.666821957E-1,-3.764915466E-1,-5.252037048E-1,8.316040039E-2,-7.672386169E-1,-4.009239197E0,8.994373322E0
7.776794440E-1,1.862108409E-1,-4.267513752E-1,-5.283973217E-1,-2.814140320E-1,-6.314659119E-1,1.060638428E-1,-9.246559143E-1,-4.124755859E0,8.969230652E0
7.975463870E-1,1.852554232E-1,-1.745252013E-1,-5.287632942E-1,-1.858062744E-1,-6.184158325E-1,1.329612732E-1,-1.028202057E0,-4.012832642E0,8.911773682E0
8.174133300E-1,1.431776434E-1,9.316247702E-2,-3.094329834E-1,-1.048469543E-1,-4.716758728E-1,9.114837646E-2,-8.665962219E-1,-3.917659760E0,8.847728729E0
8.372802740E-1,9.973828495E-2,1.975326538E-1,-1.275231838E-1,-4.811859131E-2,-2.679405212E-1,3.469085693E-2,-7.971649170E-1,-3.838054657E0,8.753158569E0
8.571472170E-1,1.798691303E-1,1.083784103E-1,-9.464955330E-2,-1.163482666E-2,-7.806015015E-2,1.498031616E-2,-7.031898499E-1,-3.654891968E0,8.727420807E0
8.770141600E-1,2.284923196E-2,-2.998745441E-2,-2.160425186E-1,3.013610840E-3,2.060966492E-1,-3.614425659E-2,-6.253776550E-1,-3.409492493E0,8.850120544E0
8.968811040E-1,-5.139515102E-1,3.559958935E-2,-3.691959381E-1,8.075714111E-3,3.917198181E-1,-1.248321533E-1,-6.104164124E-1,-3.256259918E0,9.059017181E0
9.167480470E-1,-8.451842368E-1,2.144140005E-2,-3.400728703E-1,2.990722656E-2,2.809371948E-1,-1.685104370E-1,-5.469665527E-1,-3.319107056E0,9.173938751E0
9.366149900E-1,-5.388965011E-1,4.090768099E-2,-3.110346794E-1,3.044128418E-2,7.880020142E-2,-1.583900452E-1,-5.607376099E-1,-3.462162018E0,9.030281067E0
9.564819340E-1,-2.170075029E-1,1.321256757E-1,-2.031838894E-1,4.608154297E-3,-5.835342407E-2,-1.357498169E-1,-1.116188049E0,-3.440612793E0,8.880649567E0
9.763488770E-1,1.033665091E-1,1.189612746E-1,-2.570483685E-1,-1.243591309E-2,-8.311462402E-2,-1.160430908E-1,-1.619575500E0,-3.420265198E0,8.834560394E0
9.962158200E-1,2.594935298E-1,-4.225063324E-2,-8.538448811E-1,3.976058960E-2,-2.080230713E-1,-7.689285278E-2,-1.500457764E0,-3.426250458E0,8.889625549E0
1.016082764E0,1.926677078E-1,5.352312326E-2,-7.054643631E-1,1.406974792E-1,-2.367820740E-1,-3.854370117E-2,-1.129959106E0,-3.337062836E0,8.967433929E0
1.035949707E0,1.385862231E-1,2.352969050E-1,-1.924490929E-1,1.827774048E-1,-2.037620544E-1,-6.384658813E-2,-8.211059570E-1,-3.302944183E0,8.989585876E0
1.055816651E0,1.793357879E-1,3.120730519E-1,1.201174259E-1,1.926345825E-1,-1.078872681E-1,-4.307174683E-2,-5.403862000E-1,-3.461566925E0,8.464653015E0
1.075683594E0,2.864508629E-1,4.652111530E-1,2.404947281E-1,1.777153015E-1,4.338073730E-2,3.795623779E-3,-5.343971252E-1,-3.428043365E0,8.362899780E0
1.095550537E0,2.026172876E-1,4.899260402E-1,-1.309244633E-1,1.303100586E-1,1.563034058E-1,6.992340088E-3,-5.421791077E-1,-3.197601318E0,8.849521637E0
1.115417481E0,-5.262820423E-2,3.239071965E-1,-3.025863171E-1,1.132659912E-1,1.672134399E-1,3.389358521E-2,-5.176429749E-1,-3.075500488E0,9.273296356E0
1.135284424E0,-1.647483259E-1,3.104678988E-1,-1.361293793E-1,1.284446716E-1,2.191543579E-1,1.791763306E-2,-3.739852905E-1,-2.897731781E0,9.461841583E0
1.155151367E0,-4.491322190E-1,4.024921656E-1,8.336544037E-3,1.444282532E-1,1.983757019E-1,-3.614425659E-2,-4.099006653E-1,-2.770240784E0,9.203266144E0
1.175018311E0,-5.404846668E-1,3.234245181E-1,-5.251169205E-2,1.153984070E-1,1.352577209E-1,-4.653167725E-2,-6.894226074E-1,-2.896530151E0,8.918354034E0
1.194885254E0,-4.158359617E-1,2.420176268E-1,1.419329643E-2,6.133270264E-2,5.908966064E-2,-6.144714355E-2,-8.522300720E-1,-2.936637878E0,9.036270142E0
1.214752197E0,-4.277908653E-1,1.230778694E-1,1.169321537E-1,3.896331787E-2,-5.196380615E-2,-7.157135010E-2,-1.144916534E0,-2.812736511E0,9.214641571E0
1.234619141E0,-2.111857682E-1,-1.612401009E-2,1.097536087E-2,4.455566406E-2,-1.686096191E-1,-5.905532837E-2,-1.365188599E0,-2.801963806E0,9.191894531E0
1.254486084E0,8.055217564E-2,-1.036807895E-1,5.950856209E-2,3.976821899E-2,-2.362518311E-1,-4.653549194E-2,-1.263431549E0,-2.888751984E0,9.220623016E0
1.274353028E0,3.011138588E-1,1.396858692E-2,1.257209778E-1,4.615783691E-2,-1.856498718E-1,-5.798721313E-2,-1.270015717E0,-2.977336884E0,9.357692719E0
1.294219971E0,1.826811731E-1,9.526914358E-2,9.762096405E-2,7.012176514E-2,-1.132202148E-1,-7.796096802E-2,-1.108409882E0,-3.103031158E0,9.270900726E0
1.314086914E0,1.204187572E-1,2.857720852E-2,-5.193495750E-2,6.639480591E-2,-8.072280884E-2,-6.890487671E-2,-7.714233398E-1,-3.218551636E0,9.292449951E0
1.333953858E0,6.330828369E-2,-5.153453350E-2,3.936314583E-2,6.107330322E-2,-2.585983276E-2,-6.198501587E-2,-4.691581726E-1,-3.141937256E0,9.378643036E0
1.353820801E0,-3.820769489E-2,-8.014392853E-2,-1.114759445E-1,9.835433960E-2,2.021408081E-2,-7.289886475E-2,-4.733467102E-1,-3.019233704E0,9.396598816E0
1.373687744E0,-2.378132194E-1,1.442384720E-2,-1.699376106E-1,1.417655945E-1,-6.874084473E-2,-4.174041748E-2,-5.565452576E-1,-3.034801483E0,9.239776611E0
1.393554688E0,-2.475826442E-1,2.065196037E-1,-1.583850384E-1,1.492195129E-1,-1.832580566E-1,-1.297760010E-2,-5.709152222E-1,-3.112609863E0,9.294845581E0
1.413421631E0,-1.904090196E-1,2.290463448E-1,-1.841447353E-1,1.465568542E-1,-3.212051392E-1,-4.653930664E-4,-6.385459900E-1,-3.144332886E0,9.219429016E0
1.433288574E0,1.379522085E-1,1.773979664E-1,-8.358888626E-1,2.000846863E-1,-5.571594238E-1,4.028320312E-2,-8.671913147E-1,-3.087471008E0,9.117671967E0
1.453155518E0,3.235657141E-1,5.141065121E-1,-1.860451698E-1,2.568130493E-1,-4.482383728E-1,4.960632324E-2,-8.743782043E-1,-2.843257904E0,9.113487244E0
1.473022461E0,6.304142028E-1,9.953436255E-1,6.463654041E-1,1.138038635E-1,-1.329231262E-1,6.458282471E-3,-8.384628296E-1,-2.748088837E0,9.217628479E0
1.492889404E0,4.987103939E-1,9.538387060E-1,4.336826801E-1,-9.339523315E-2,2.042388916E-1,6.052780151E-2,-4.290580750E-1,-2.793579102E0,8.573593140E0
1.512756348E0,5.563082993E-1,6.542649865E-1,3.732173443E-1,-2.020530701E-1,3.680191040E-1,1.625251770E-1,-1.872367859E-1,-2.522438049E0,8.862689972E0
1.532623291E0,7.302238643E-1,6.174575090E-1,3.349528313E-1,-2.790184021E-1,6.188888550E-1,1.806297302E-1,2.778320312E-1,-1.947834015E0,9.834140778E0
1.552490235E0,5.570268929E-1,6.062026620E-1,2.494342327E-1,-3.863449097E-1,7.802772522E-1,2.259063721E-1,1.748809814E-1,-1.824527740E0,9.981983185E0
1.572357178E0,5.337810069E-1,6.523962617E-1,2.565765381E-2,-4.465293884E-1,9.232864380E-1,3.287048340E-1,1.204109192E-1,-2.148345947E0,9.599510193E0
1.592224121E0,3.912982643E-1,3.999643922E-1,-2.219538689E-1,-4.246902466E-1,9.371414185E-1,3.867645264E-1,2.497024536E-1,-2.275836945E0,9.722808838E0
1.612091065E0,9.482014179E-2,-1.806554794E-1,-3.033301830E-1,-3.629035950E-1,8.188934326E-1,4.384269714E-1,-8.274078369E-3,-2.334495544E0,9.609680176E0
1.631958008E0,1.014408469E-1,-5.534340739E-1,-1.571686268E-1,-2.790184021E-1,6.878662109E-1,5.002098083E-1,-2.345275879E-1,-2.354839325E0,9.334350586E0
1.651824951E0,1.390596926E-1,-6.181117296E-1,-3.089015484E-1,-1.362686157E-1,5.997123718E-1,5.332374573E-1,-5.218315125E-1,-2.557155609E0,9.094329834E0
1.671691895E0,-3.729663789E-1,-4.107266068E-1,-4.057836533E-1,7.804870605E-3,5.941238403E-1,5.151252747E-1,-9.779243469E-1,-3.177253723E0,8.850715637E0
1.691558838E0,-7.152013481E-1,-1.136892438E-1,-2.412831783E-1,6.453323364E-2,4.873275757E-1,4.293708801E-1,-1.244880676E0,-3.674045563E0,8.966243744E0
1.711425781E0,-8.722068965E-1,-1.230947971E-1,1.628637314E-2,3.257369995E-2,3.043708801E-1,3.518753052E-1,-1.277797699E0,-3.853618622E0,8.874061584E0
1.731292725E0,-5.813133419E-1,-3.267157674E-1,2.961189747E-1,-1.509475708E-2,1.786689758E-1,3.137893677E-1,-1.848812103E0,-3.714752197E0,8.673549652E0
1.751159668E0,-3.389817178E-1,-3.387889266E-1,3.042187691E-1,-5.508422852E-3,1.677474976E-1,2.501411438E-1,-2.378532410E0,-3.374176025E0,8.735797882E0
1.771026611E0,-4.582588673E-1,-2.980833650E-1,7.841205597E-2,8.071899414E-3,1.387214661E-1,1.803665161E-1,-2.738262177E0,-3.276012421E0,9.017715454E0
1.790893555E0,-5.631340146E-1,-2.846594453E-1,-1.079993248E-1,-1.403427124E-2,4.923629761E-2,1.340293884E-1,-2.591613770E0,-3.451385498E0,9.241577148E0
1.810760498E0,-3.789686561E-1,-3.326241970E-1,6.416463852E-2,-4.439163208E-2,-1.076240540E-1,1.055335999E-1,-2.352798462E0,-3.520221710E0,9.409763336E0
1.830627442E0,-2.306383848E-2,-2.372414470E-1,3.756475449E-1,-4.678726196E-2,-1.382446289E-1,9.114837646E-2,-2.436595917E0,-3.466949463E0,9.155979156E0
1.850494385E0,1.358225942E-1,-9.215408564E-2,1.974723339E-1,-3.240585327E-2,-5.995178223E-2,6.291580200E-2,-2.630523682E0,-3.441211700E0,8.946487427E0
1.870391846E0,7.450646162E-2,-1.464822292E-1,-1.525092125E-2,-5.237960815E-2,3.963470459E-3,4.055023193E-2,-2.522785187E0,-3.477722168E0,9.013526917E0
1.890258789E0,3.758364916E-2,-2.289602757E-1,1.155250072E-1,-6.995773315E-2,2.580261230E-2,3.389358521E-2,-2.175022125E0,-3.450191498E0,9.361885071E0
1.910095215E0,-5.056679249E-3,-1.302759647E-1,1.555113792E-1,-3.667068481E-2,3.059768677E-2,2.590179443E-2,-1.915855408E0,-3.295761108E0,9.309806824E0
1.929962158E0,-5.403858423E-2,-7.070410252E-2,-6.858944893E-2,-4.440307617E-3,-3.757476807E-3,2.616882324E-2,-1.948169708E0,-3.293373108E0,9.041061401E0
1.949829102E0,-9.222555161E-2,-7.267606258E-2,-2.918570042E-1,-1.749801636E-2,-2.239990234E-2,2.590560913E-2,-2.008628845E0,-3.414279938E0,9.094333649E0
1.969726563E0,-7.602006197E-2,-1.317592263E-1,-1.064200401E-1,-1.882171631E-2,-8.844757080E-2,3.096389771E-2,-2.042747498E0,-3.365200043E0,9.221221924E0
1.989562988E0,1.094444990E-1,-4.569762945E-2,1.341362000E-1,1.286697388E-2,-1.102867126E-1,5.093765259E-2,-2.100208282E0,-3.289779663E0,9.017711639E0
2.009460449E0,9.408342838E-2,6.420731544E-2,-7.833290100E-2,3.044509888E-2,-8.258438110E-2,5.253601074E-2,-2.143302917E0,-3.272418976E0,8.762134552E0
2.029327393E0,-5.006611347E-3,8.973252773E-2,-1.201181412E-1,-5.508422852E-3,-5.941772461E-2,5.839157104E-2,-2.144500732E0,-3.331680298E0,8.827373505E0
2.049194336E0,-1.502219439E-1,5.806291103E-2,-2.176039219E-1,-6.839752197E-3,3.272628784E-2,5.572891235E-2,-1.983489990E0,-3.298759460E0,9.178726196E0
2.069061279E0,-5.005275011E-1,-1.208267808E-1,-8.607733250E-1,1.023483276E-1,5.110549927E-2,4.693984985E-2,-1.894309998E0,-3.154506683E0,8.978809357E0
2.088928223E0,-4.111860991E-1,-2.137381434E-1,-7.517352104E-1,1.444282532E-1,-1.656799316E-1,1.406822205E-1,-2.000247955E0,-3.116203308E0,8.909980774E0
2.108795166E0,3.461247981E-1,-3.257322311E-2,4.814777374E-1,1.366424561E-2,-1.667404175E-1,2.125930786E-1,-2.102600098E0,-3.120391846E0,8.900997162E0
2.128662110E0,1.840181947E-1,6.289893389E-2,1.130250216E0,-1.061782837E-1,-4.554748535E-3,2.077980042E-1,-2.445571899E0,-3.261646271E0,8.313224792E0
2.148529053E0,4.043678641E-1,2.859625816E-1,-9.878873825E-3,-2.388381958E-2,4.044723511E-2,2.746391296E-1,-2.546726227E0,-3.389137268E0,8.151611328E0
2.168395996E0,1.162512720E0,5.814342499E-1,-7.746963501E-1,-1.123008728E-1,-1.547584534E-1,3.100624084E-1,-1.841037750E0,-3.225734711E0,9.174533844E0
2.188262940E0,1.438326895E0,5.706151128E-1,-6.032488346E-1,-1.700897217E-1,8.332824707E-2,3.382911682E-1,-1.688404083E0,-3.081485748E0,1.014299011E1
2.208129883E0,1.176643193E0,5.021239519E-1,-3.882837296E-2,-6.356430054E-2,3.134231567E-1,4.267044067E-1,-1.798538208E0,-2.948604584E0,9.436698914E0
2.227996826E0,1.118235290E0,5.729610920E-1,-5.434381962E-1,8.050918579E-2,5.720176697E-1,5.143241882E-1,-1.008449554E0,-2.608032227E0,8.338958740E0
2.247863770E0,7.547647953E-1,4.960722327E-1,-7.188370228E-1,1.175270081E-1,7.358016968E-1,5.335044861E-1,-5.888671875E-1,-2.547576904E0,8.338359833E0
2.267730713E0,8.067429066E-3,4.468379021E-1,-7.704110146E-1,1.678619385E-1,9.999885559E-1,5.172538757E-1,-8.157196045E-1,-2.650527954E0,8.912967682E0
2.287597656E0,-8.969570994E-1,3.867424130E-1,-6.638848782E-1,2.213897705E-1,8.053131104E-1,5.231132507E-1,-1.016235352E0,-2.567928314E0,8.618484497E0
2.307464600E0,-1.011271656E0,3.783904314E-1,-4.795775414E-1,1.849098206E-1,4.567031860E-1,5.595970154E-1,-1.380748749E0,-2.567928314E0,8.205482483E0
2.327331543E0,-5.589041114E-1,1.881276965E-1,2.798478603E-1,9.648513794E-2,1.539039612E-1,5.446853638E-1,-2.260021210E0,-2.566730499E0,8.231216431E0
2.347167969E0,-1.377690434E-1,-1.659404635E-1,9.219863415E-1,1.058120728E-1,2.151527405E-1,4.615974426E-1,-3.364345551E0,-2.575111389E0,8.151615143E0
2.367065430E0,-4.095384479E-1,-7.301437259E-1,3.540232182E-1,2.120704651E-1,4.460525513E-1,3.508110046E-1,-3.889270782E0,-2.508071899E0,8.300647736E0
2.386932373E0,-7.874199152E-1,-8.995050788E-1,2.608106136E-1,2.256507874E-1,2.953186035E-1,3.068618774E-1,-3.626514435E0,-2.573314667E0,8.908779144E0
2.406799317E0,-5.892810822E-1,-6.460067034E-1,1.065895796E0,1.494865417E-1,6.282424927E-2,2.908859253E-1,-3.172214508E0,-2.851043701E0,9.697669983E0
2.426666260E0,3.749120235E-2,-5.902508497E-1,1.271399021E0,1.026115417E-1,-4.104232788E-2,2.490768433E-1,-3.352375031E0,-3.323898315E0,9.410366058E0
2.446533203E0,3.011265993E-1,-7.043924928E-1,1.019709826E0,5.227661133E-2,9.904479980E-2,1.649169922E-1,-3.873115540E0,-3.607013702E0,8.937507629E0
2.466400147E0,5.096799135E-2,-8.354990482E-1,6.107947826E-1,6.639480591E-2,1.903877258E-1,1.004676819E-1,-3.937160492E0,-3.352031708E0,9.762912750E0
2.486267090E0,-1.020054817E-1,-7.921054363E-1,2.618160248E-1,8.450317383E-2,1.768035889E-1,6.958007812E-2,-3.341598511E0,-3.183837891E0,1.011964798E1
2.506134033E0,-1.751300693E-1,-4.300585389E-1,3.386168480E-1,6.053924561E-2,1.459159851E-1,5.652999878E-2,-2.942367554E0,-3.246086121E0,9.953250885E0
2.526000977E0,-1.335260868E-1,-1.711916924E-1,1.567087173E-1,2.911376953E-2,1.136856079E-1,5.013656616E-2,-3.155452728E0,-3.377166748E0,9.618061066E0
2.545867920E0,-7.607054710E-2,7.828831673E-3,-9.335517883E-3,-9.769439697E-3,5.483245850E-2,4.481124878E-2,-3.392478943E0,-3.399314880E0,9.118274689E0
2.565734863E0,8.144795895E-2,1.919339299E-1,-1.223206520E-1,-4.013442993E-2,2.899932861E-2,5.492782593E-2,-3.510990143E0,-3.061729431E0,9.221820831E0
2.585601807E0,2.940990925E-1,3.068487048E-1,-4.353773594E-1,-3.960037231E-2,1.155548096E-1,7.117462158E-2,-3.521167755E0,-2.757072449E0,9.047645569E0
2.605468750E0,2.709560394E-1,2.962539792E-1,-7.827675343E-1,-8.708953857E-3,2.103614807E-1,9.621047974E-2,-3.496028900E0,-2.568527222E0,8.884243011E0
2.625335694E0,1.838324070E-1,3.576474786E-1,-8.059842587E-1,-5.779266357E-3,2.140884399E-1,1.625213623E-1,-3.362552643E0,-2.375797272E0,8.735198975E0
2.645202637E0,3.449677825E-1,5.178903937E-1,-5.212407112E-1,-3.667449951E-2,1.674880981E-1,2.650527954E-1,-3.161437988E0,-2.251296997E0,8.517925262E0
2.665069580E0,7.750540376E-1,5.413169265E-1,2.532320023E-1,-7.794570923E-2,1.855926514E-1,3.540039062E-1,-3.138690948E0,-2.220169067E0,8.083377838E0
2.684936524E0,9.205865860E-1,5.441892147E-1,1.092018366E0,-9.925460815E-2,2.598953247E-1,4.275054932E-1,-3.297904968E0,-2.195629120E0,7.968460083E0
2.704803467E0,6.323431730E-1,6.932082772E-1,1.127186060E0,-1.080474854E-1,2.258110046E-1,5.449523926E-1,-3.258399963E0,-2.014865875E0,8.145027161E0
2.724670410E0,6.098452806E-1,8.161669970E-1,5.930955410E-1,-1.820755005E-1,-3.757476807E-3,7.036781311E-1,-2.895683289E0,-1.933464050E0,8.805233002E0
2.744537354E0,7.665428519E-1,8.930475116E-1,6.120936871E-1,-3.171005249E-1,-3.009643555E-1,8.762474060E-1,-2.681396484E0,-1.947231293E0,9.633026123E0
2.764404297E0,8.894721270E-1,7.996035218E-1,6.761493683E-1,-3.634376526E-1,-5.947113037E-1,1.089038849E0,-2.984863281E0,-1.799388885E0,9.971202850E0
2.784271240E0,1.528800726E0,7.589575648E-1,7.113471031E-1,-3.346748352E-1,-7.015075684E-1,1.311408997E0,-3.135101318E0,-1.644962311E0,9.393604279E0
2.804138184E0,2.181565702E0,8.494458199E-1,2.455337048E-1,-3.123054504E-1,-4.575653076E-1,1.453624725E0,-3.014194489E0,-1.506099701E0,9.303226471E0
2.824005127E0,2.048640609E0,8.029353023E-1,-2.000710964E-1,-2.718238831E-1,-4.450225830E-2,1.610218048E0,-2.866950989E0,-1.547401428E0,9.423530579E0
2.843872070E0,1.799092114E0,6.942481399E-1,-7.326855659E-1,-1.911315918E-1,2.495117188E-1,1.827262878E0,-2.354591370E0,-1.605457306E0,9.504337311E0
2.863739014E0,1.364084721E0,7.138078809E-1,-1.035419941E0,-1.045799255E-1,3.227462769E-1,2.078399658E0,-1.457965851E0,-1.479167938E0,9.166751862E0
2.883605957E0,1.804041743E0,9.435403943E-1,-1.079681635E0,-4.838562012E-2,7.230186462E-1,2.220085144E0,-1.482501984E0,-1.417518616E0,8.759738922E0
2.903472901E0,1.555250168E0,8.295365572E-1,-1.587325573E0,8.392333984E-5,1.448463440E0,2.171077728E0,-1.772201538E0,-1.449234009E0,8.176151276E0
2.923339844E0,2.935221195E-1,3.684781492E-1,-1.584730864E0,6.133270264E-2,2.026634216E0,2.203567505E0,-2.324665070E0,-1.350471497E0,7.748786926E0
2.943206787E0,-4.932278395E-1,4.094684124E-1,-1.354525328E0,1.231193542E-1,2.197341919E0,2.282402039E0,-2.318077087E0,-9.997253418E-1,7.752380371E0
2.963073731E0,-1.007588625E0,7.701473832E-1,-1.498373032E0,1.436233521E-1,2.159793854E0,2.221675873E0,-2.353397369E0,-7.992095947E-1,7.088584900E0
2.982940674E0,-1.271175742E0,7.771313488E-1,-1.862462997E0,1.289787292E-1,1.954200745E0,2.101837158E0,-3.937759399E0,-1.039825439E0,6.889865875E0
3.002807617E0,-1.472845554E0,5.980831534E-1,-1.509619594E0,8.743286133E-2,1.784286499E0,1.973739624E0,-5.269527435E0,-9.596252441E-1,6.842582703E0
3.022674561E0,-1.696552515E0,4.512452334E-1,-3.659943342E-1,1.028823853E-1,1.746734619E0,1.780391693E0,-6.224819183E0,-3.239593506E-1,6.634883881E0
3.042541504E0,-2.223310232E0,1.521373950E-1,-1.447069645E-2,1.971588135E-1,1.585350037E0,1.582252502E0,-6.929912567E0,3.755950928E-2,5.995632172E0
3.062408447E0,-2.203637123E0,-1.102808081E-1,-2.230752707E-1,2.568130493E-1,1.335811615E0,1.443500519E0,-7.469802856E0,1.435050964E-1,5.866348267E0
3.082275391E0,-2.107707977E0,-8.154842257E-2,-4.548239708E-1,2.211265564E-1,1.063640594E0,1.258407593E0,-7.943855286E0,2.350769043E-1,6.735443115E0
3.102142334E0,-2.283269167E0,-1.233481765E-1,-4.171948433E-1,1.758537292E-1,6.471214294E-1,1.141769409E0,-8.676479340E0,2.386779785E-1,7.088588715E0
3.122009278E0,-1.845622897E0,-1.446771175E-1,-6.869171858E-1,1.497535706E-1,1.182174683E-1,1.129787445E0,-9.078708649E0,1.351242065E-1,6.803676605E0
3.141876221E0,-7.948583364E-1,-1.544139683E-1,-8.449301720E-1,6.666183472E-2,-2.522315979E-1,1.106884003E0,-9.061946869E0,3.547897339E-1,6.318256378E0
3.161743164E0,2.785271406E-1,-6.295111775E-2,-8.460575342E-1,-1.083374023E-2,-1.877822876E-1,1.081577301E0,-9.367210388E0,5.379486084E-1,6.211109161E0
3.181610108E0,1.209200501E0,7.003787160E-2,-1.019889355E0,2.698516846E-2,2.907905579E-1,1.057613373E0,-9.196617126E0,6.702308655E-1,5.935184479E0
3.201477051E0,1.295087457E0,4.704654217E-3,-3.213332891E-1,8.157730103E-2,8.505821228E-1,1.069858551E0,-8.205425262E0,8.432121277E-1,5.743045807E0
3.221343994E0,8.442201614E-1,-7.188764215E-2,-3.846681118E-2,1.292457581E-1,1.419437408E0,1.060272217E0,-7.077156067E0,1.049114227E0,5.737060547E0
3.241210938E0,-8.247685432E-2,-3.784719110E-2,-1.465963125E-1,2.584114075E-1,1.532360077E0,1.025386810E0,-6.030887604E0,1.353771210E0,5.568271637E0
3.261077881E0,-4.492230415E-1,3.301040232E-1,-6.072747707E-1,3.881034851E-1,1.454856873E0,1.000350952E0,-5.727420807E0,1.499820709E0,5.975879669E0
3.280944824E0,-5.912806988E-1,6.747863889E-1,-9.804487228E-1,3.430976868E-1,1.233016968E0,9.452247620E-1,-6.166160583E0,1.559673309E0,6.313465118E0
3.300811768E0,-5.810399055E-1,6.673808694E-1,-7.808909416E-1,1.867713928E-1,1.095062256E0,9.319076538E-1,-7.187881470E0,1.726074219E0,6.013591766E0
3.320678711E0,-5.503606796E-1,3.975116611E-1,-4.475547075E-1,1.071434021E-1,9.115715027E-1,9.476203918E-1,-7.882801056E0,2.191146851E0,5.443168640E0
3.340545654E0,-4.309109449E-1,1.551359892E-1,-5.607067347E-1,1.188621521E-1,6.657600403E-1,9.835739136E-1,-8.142574310E0,2.801071167E0,4.725509644E0
3.360412598E0,3.240942955E-3,-1.564836502E-2,-7.340483665E-1,9.888458252E-2,4.308700562E-1,1.053085327E0,-8.273658752E0,3.054252625E0,4.604602814E0
3.380279541E0,4.498848915E-1,-1.728920341E-1,-2.969973087E-1,4.988479614E-2,3.592338562E-1,1.151088715E0,-8.303585052E0,2.985420227E0,4.780574799E0
3.400146485E0,5.449085236E-1,-4.860025644E-2,5.529710054E-1,1.161956787E-1,5.882644653E-1,1.226989746E0,-8.279045105E0,2.880676270E0,4.687206268E0
3.420043945E0,3.085029125E-1,3.588063717E-1,6.193834543E-1,3.060798645E-1,9.509849548E-1,1.184112549E0,-7.918712616E0,2.874088287E0,4.313705444E0
3.439880371E0,-4.087644815E-1,4.127036333E-1,2.052649260E-1,4.397697449E-1,9.813423157E-1,1.183044434E0,-7.390796661E0,2.883075714E0,4.542350769E0
3.459747315E0,-3.477057219E-1,5.506991148E-1,-3.050161600E-1,4.355087280E-1,8.777503967E-1,1.209411621E0,-7.222599030E0,3.075805664E0,5.295330048E0
3.479614258E0,-4.257134199E-1,5.274507999E-1,-3.517280817E-1,4.344406128E-1,6.993141174E-1,1.186504364E0,-7.246543884E0,3.696498871E0,5.487464905E0
3.499481201E0,-3.856061697E-1,5.403895378E-1,-4.964637756E-1,4.879760742E-1,5.893287659E-1,1.200622559E0,-8.025257111E0,4.029895782E0,4.967323303E0
3.519348145E0,8.953285217E-2,5.380406380E-1,-1.268264055E0,5.066146851E-1,6.276779175E-1,1.201953888E0,-8.113246918E0,4.380046844E0,4.267620087E0
3.539215088E0,3.187468052E-1,3.856747150E-1,-1.378102124E0,4.799842834E-1,7.224884033E-1,1.228847504E0,-8.084510803E0,4.625450134E0,3.892929077E0
3.559082031E0,4.340939522E-1,2.757441998E-1,-1.133293748E0,5.170059204E-1,9.131698608E-1,1.290904999E0,-8.138984680E0,4.833744049E0,3.790573120E0
3.578948975E0,5.179538727E-1,1.791893244E-1,-1.261721194E0,6.256561279E-1,1.007183075E0,1.359615326E0,-7.614650726E0,5.080348969E0,2.920883179E0
3.598815918E0,5.560119152E-1,1.751511097E-1,-1.572810471E0,7.084846497E-1,1.083080292E0,1.450695038E0,-7.269290924E0,5.182701111E0,2.440845490E0
3.618682861E0,7.197518349E-1,1.279115677E-1,-1.621176004E0,7.321853638E-1,1.117965698E0,1.560420990E0,-7.080146790E0,5.282062531E0,2.517456055E0
3.638549805E0,8.183618784E-1,-1.277362108E-1,-1.295316517E0,7.465705872E-1,1.156314850E0,1.648834229E0,-6.899982452E0,5.411350250E0,2.290607452E0
3.658416748E0,8.416284323E-1,-3.984758854E-1,-9.347319603E-1,7.942352295E-1,1.210643768E0,1.751098633E0,-6.799427032E0,5.636402130E0,1.759696960E0
3.678314209E0,9.146064520E-1,-2.385238409E-1,-1.333456039E-1,8.118133545E-1,1.195999146E0,1.843509674E0,-6.572578430E0,5.884204865E0,1.346092224E0
3.698150635E0,1.005454421E0,9.096515179E-2,3.404250145E-1,6.661415100E-1,1.214103699E0,1.862152100E0,-6.291255951E0,5.945854187E0,1.377815247E0
3.718017578E0,1.234877944E0,1.533050537E-1,1.169034600E0,2.916984558E-1,1.234344482E0,1.777194977E0,-6.144611359E0,5.920116425E0,1.451438904E0
3.737915039E0,1.255795479E0,-1.781070232E-1,2.487003922E0,-1.607742310E-1,1.441272736E0,1.589710236E0,-5.860900879E0,6.219989777E0,1.847080231E0
3.757781983E0,1.186830163E0,-1.012329221E0,3.979142785E0,-4.864730835E-1,1.589874268E0,1.306350708E0,-5.636444092E0,6.861034393E0,2.245121002E0
3.777648926E0,1.143905520E0,-1.730026841E0,5.371948957E0,-7.280273438E-1,1.623435974E0,9.588088989E-1,-5.160594940E0,7.253688812E0,2.581504822E0
3.797515869E0,8.563712835E-1,-1.603444934E0,6.184013963E0,-1.048934937E0,1.618106842E0,6.096687317E-1,-4.902023315E0,7.263858795E0,3.726531982E0
3.817382813E0,-1.043076634E0,4.999879599E-1,7.573946238E0,-1.475040436E0,1.780826569E0,3.095283508E-1,-4.770942688E0,6.688655853E0,5.006828308E0
3.837249756E0,-4.402753234E0,4.630916119E0,9.444074631E0,-1.888629913E0,1.823699951E0,6.345367432E-2,-4.691333771E0,5.984764099E0,6.473873138E0
3.857116699E0,-8.150762439E0,1.152270365E1,1.357863116E1,-2.397293091E0,1.540077209E0,-2.918128967E-1,-4.717067719E0,5.863853455E0,7.257377625E0
3.876983643E0,-1.056696296E1,1.715081978E1,1.574335885E1,-3.275074005E0,7.307472229E-1,-8.311080933E-1,-6.144615173E0,7.473953247E0,8.596336365E0
3.896850586E0,-1.017529488E1,1.581781554E1,1.582149959E1,-4.534481049E0,2.785377502E-1,-1.576522827E0,-9.166694641E0,1.098325348E1,1.016753006E1
3.916717529E0,-1.220200372E1,1.349023652E1,1.741109705E1,-5.296409607E0,4.175529480E-1,-2.644447327E0,-1.312430954E1,1.729975891E1,1.421672440E1
3.936584473E0,-1.682164454E1,1.282957959E1,1.322515464E1,-4.985618591E0,4.151535034E-2,-3.307312012E0,-1.622838974E1,2.380719757E1,1.737946320E1
3.956451416E0,-1.842702532E1,1.324776196E1,3.381897092E0,-5.139015198E0,-9.398612976E-1,-3.435142517E0,-1.657016373E1,2.400950623E1,1.831799316E1
3.976318360E0,-1.790391588E1,1.420928454E1,-2.140921354E0,-5.968593597E0,-1.861309052E0,-3.522495270E0,-1.781753922E1,2.068096924E1,2.033091736E1
3.996185303E0,-1.475441074E1,1.401146412E1,-3.807370067E0,-6.206142426E0,-2.334018707E0,-3.694263458E0,-2.290881348E1,1.912772751E1,1.918947983E1
4.016052246E0,-1.103386569E1,1.358530426E1,-6.341819167E0,-5.689228058E0,-1.932155609E0,-4.050331116E0,-2.571960449E1,1.829693985E1,1.022798538E1
4.035919190E0,-8.688925028E0,1.170217681E1,-1.130841994E1,-5.171772003E0,-1.200847626E0,-4.459655762E0,-2.618228531E1,1.844897079E1,4.141925812E0
4.055786133E0,-5.801255584E0,9.420536518E0,-1.378083110E1,-4.857791901E0,-1.647991180E0,-4.857269287E0,-2.355105972E1,1.716687775E1,2.560554504E0
4.075653076E0,-3.554583430E0,7.478405118E0,-1.139754367E1,-4.267101288E0,-2.447471619E0,-5.215999603E0,-1.971614838E1,1.569264984E1,1.381404877E0
4.095520020E0,-1.875286818E0,6.954714298E0,-9.438215733E0,-3.332332611E0,-2.430694580E0,-5.648227692E0,-1.709509277E1,1.271366501E1,-2.987411499E0
4.115386963E0,-8.483028412E-1,7.127116561E0,-1.193977976E1,-2.662807465E0,-2.372638702E0,-5.953960419E0,-1.414244080E1,9.142711639E0,-6.452419281E0
4.135253906E0,-7.791132927E-1,7.449150085E0,-1.292085052E1,-2.683048248E0,-2.670913696E0,-5.970741272E0,-1.126700211E1,5.585525513E0,-4.976993561E0
4.155120850E0,-1.583611846E0,9.171628475E0,-9.995109081E0,-2.723533630E0,-2.065841675E0,-6.167812347E0,-8.787208557E0,3.463661194E0,-2.156620026E0
4.174987793E0,-2.892098844E0,1.089702988E1,-9.254611254E0,-2.035102844E0,-1.442661285E0,-6.498046875E0,-6.756332397E0,2.435951233E0,-3.767322540E0
4.194854736E0,-3.399265051E0,1.121707416E1,-1.200362825E1,-1.492618561E0,-2.989959717E0,-6.272209167E0,-5.468852997E0,1.724876404E0,-5.879608154E0
4.214721680E0,-2.702726662E0,1.121691847E1,-1.095772147E1,-1.827114105E0,-3.811008453E0,-5.851158142E0,-5.034297943E0,2.104354858E0,-3.697891235E0
4.234588623E0,-2.367116272E0,1.193870664E1,-9.129712343E0,-2.445228577E0,-2.957736969E0,-5.463142395E0,-5.193515778E0,3.493591309E0,-2.113529205E0
4.254455567E0,-3.419919074E0,1.252303958E1,-6.581620336E0,-2.303550720E0,-1.733478546E0,-5.082305908E0,-4.871498108E0,3.588161469E0,-4.838130951E0
4.274322510E0,-4.930566430E0,1.221348357E1,-6.321513057E0,-1.778110504E0,-1.248783112E0,-4.606136322E0,-2.856773376E0,3.337966919E0,-5.183490753E0
4.294189453E0,-5.423275709E0,1.173549485E1,-8.599798918E0,-1.811401367E0,-1.672225952E0,-4.082824707E0,-1.141330719E0,3.771316528E0,-3.791858673E0
4.314056397E0,-5.742631197E0,1.115500164E1,-6.402247429E0,-2.312870026E0,-1.792865753E0,-3.590671539E0,-6.259765625E-1,4.447677612E0,-1.638275146E0
4.333923340E0,-4.712105393E0,1.076315546E1,-2.480782747E0,-2.400760651E0,-1.423751831E0,-3.010898590E0,-1.352020264E0,4.505744934E0,-1.051696777E0
4.353790283E0,-2.092341304E0,1.051233339E1,-1.612956762E0,-1.711265564E0,-1.534542084E0,-2.481197357E0,-1.287376404E0,4.201080322E0,-3.833763123E0
4.373657227E0,2.215635896E0,1.005085230E1,-4.140102684E0,-1.079566956E0,-1.887676239E0,-2.041511536E0,-9.276504517E-1,3.904796600E0,-3.183135986E0
4.393528080E0,8.926373124E0,8.173655152E0,-7.482628465E0,-1.011653900E0,-2.757995605E0,-1.526187897E0,2.131843567E-1,3.616893768E0,1.495971680E-1
4.413395023E0,1.308821893E1,3.585454464E0,-7.149258494E0,-8.883438110E-1,-4.088512421E0,-7.546691895E-1,2.976696014E0,3.618091583E0,1.592697144E0
4.433261967E0,1.552122736E1,5.170333385E-2,-4.641793847E0,4.024848938E-1,-4.803039551E0,2.701148987E-1,7.130638123E0,3.508552551E0,-5.668716431E-1
4.453128910E0,1.846947670E1,2.236554623E-1,-6.704005480E0,2.483211517E0,-4.864028931E0,9.620056152E-1,1.388348770E1,2.388065338E0,-4.747142792E0
4.472995854E0,1.921399355E1,1.982846737E0,-8.722176313E0,3.771919250E0,-3.370788574E0,1.548702240E0,1.934346008E1,-1.480960846E0,-6.301582336E0
4.492862797E0,1.910988712E1,4.059120178E0,-1.029452515E1,3.412925720E0,-3.832550049E-1,2.191051483E0,2.193218613E1,-5.676799774E0,-3.739791870E0
4.512729740E0,1.428096747E1,5.121140480E0,-5.212458014E0,2.975368500E0,2.962471008E0,2.563095093E0,2.519668579E1,-6.429172516E0,-5.924495697E0
4.532596684E0,8.730103612E0,5.146953225E0,-2.548304498E0,3.838764191E0,5.135875702E0,3.282413483E0,2.632914352E1,-5.023178101E0,-7.948196411E0
4.552463627E0,5.462542415E0,6.131169319E0,-4.214898527E0,4.474460602E0,5.646938324E0,3.924774170E0,2.641832733E1,-3.173065186E0,-1.051118851E1
4.572330570E0,4.649803638E-1,8.799319744E0,-6.460231304E0,4.004142761E0,5.332950592E0,4.436092377E0,2.276537323E1,-1.999908447E0,-6.013088226E0
4.592197514E0,-3.994414985E0,1.287769008E1,-4.647552609E0,3.306396484E0,6.176105499E0,5.083244324E0,1.609692383E1,-2.186050415E0,-1.085811615E0
4.612064457E0,-8.417521477E0,1.715621758E1,-5.771582127E0,3.152736664E0,6.571319580E0,5.809757233E0,1.206568527E1,-1.777839661E0,-4.064598083E-1
4.631931400E0,-1.173593140E1,1.815313387E1,-1.066076875E1,3.158325195E0,4.740394592E0,6.362361908E0,6.468643188E0,3.380317688E-1,-2.653419495E0
4.651798344E0,-1.151801944E1,1.567564249E1,-1.118531489E1,2.838481903E0,2.669258118E0,6.329334259E0,4.567985535E-1,4.242382050E0,-3.894805908E-2
4.671665287E0,-9.723053455E0,1.420486164E1,-8.459142685E0,2.779621124E0,1.580558777E0,6.000438690E0,-5.290485382E0,8.715343475E0,9.582328796E-1
4.691532230E0,-6.189105749E0,1.418307042E1,-8.402681589E0,3.548213959E0,7.443275452E-1,5.573001862E0,-1.110180664E1,1.133639908E1,-3.209472656E0
4.711399174E0,-4.045185804E0,1.346488214E1,-9.094754219E0,4.206275940E0,3.096961975E-1,4.998825073E0,-1.277594757E1,9.726295471E0,-4.968017578E0
4.731266117E0,-2.825769901E0,1.216278458E1,-1.024036646E1,3.889629364E0,1.669506073E0,4.463260651E0,-1.274183655E1,8.459167480E0,-2.035114288E0
4.751133061E0,-2.010480165E0,1.040011811E1,-9.491698503E0,3.421447754E0,2.788303375E0,4.204669952E0,-1.016028976E1,9.129543304E0,-1.029552460E0
4.771000004E0,-2.146806955E0,7.522024632E0,-6.685211182E0,3.655540466E0,2.982448578E0,4.189491272E0,-8.156337738E0,9.612575531E0,-1.553287506E0
4.790866947E0,-1.362388492E0,6.060662866E0,-5.810181618E0,4.138900757E0,3.451431274E0,4.153537750E0,-7.362663269E0,9.482688904E0,-2.321819305E0
4.810733891E0,-1.443425059E0,6.791264176E0,-7.052255750E0,4.136501312E0,3.777133942E0,3.833160400E0,-6.837734222E0,8.930824280E0,-2.404422760E0
4.830600834E0,-4.345449567E0,6.667224765E0,-4.906118512E0,3.576442719E0,3.356884003E0,3.387081146E0,-7.517089844E0,7.199218750E0,-5.751037598E-2
4.850467777E0,-8.108971953E0,3.859777927E0,2.029041171E0,2.805992126E0,2.755012512E0,3.072025299E0,-7.421321869E0,6.145172119E0,1.317962646E0
4.870334721E0,-1.168609118E1,7.766423225E-1,8.725471616E0,2.450992584E0,2.556610107E0,2.965232849E0,-7.418327332E0,7.662494659E0,-3.382263184E-1
4.890201664E0,-1.589116240E1,2.778675795E0,1.316610575E1,2.625690460E0,2.952884674E0,2.885868073E0,-1.010223007E1,8.996662140E0,-1.610527039E-1
4.910068607E0,-2.300520372E1,1.066054296E1,1.604391360E1,2.436607361E0,3.769405365E0,2.661899567E0,-1.406523132E1,7.653514862E0,5.374938965E0
4.929935551E0,-3.132507563E1,1.541714501E1,2.004897738E1,1.446449280E0,4.058628082E0,2.156967163E0,-1.770980072E1,4.886417389E0,1.201765060E1
4.949802494E0,-3.174580669E1,1.060900021E1,2.170453024E1,2.416305542E-1,2.794429779E0,6.765098572E-1,-2.174163818E1,5.789031982E0,1.656244278E1
4.969669438E0,-3.144202995E1,3.259745598E0,2.171232700E1,-4.321479797E-1,3.933181763E-1,-1.623123169E0,-2.790790558E1,1.335650253E1,1.872740555E1
4.989536381E0,-3.075350237E1,2.351580858E0,1.681559443E1,-1.180500031E0,-1.651721954E0,-2.966159821E0,-3.785700989E1,2.055706406E1,2.227560806E1
5.009403324E0,-2.327052832E1,6.459487200E0,1.125215483E1,-2.211139679E0,-2.346542358E0,-3.504650116E0,-4.286328888E1,1.826521301E1,2.368579102E1
5.029270268E0,-1.608319497E1,7.833594680E0,7.532245278E0,-2.963485718E0,-1.748928070E0,-4.223709106E0,-4.331579208E1,1.057564163E1,2.445612717E1
5.049137211E0,-1.195842409E1,7.000241160E0,3.163708806E0,-3.093177795E0,-7.406578064E-1,-5.045822144E0,-4.193672943E1,7.143550873E0,2.066251373E1
5.069004154E0,-1.082280016E1,5.525670052E0,-2.269912362E0,-2.751232147E0,-7.174873352E-1,-5.704956055E0,-3.416754150E1,1.043737411E1,1.557184219E1
5.088871098E0,-8.233610392E0,5.729046345E0,-7.453359962E0,-2.276657104E0,-1.638938904E0,-6.099639893E0,-2.627027512E1,1.179548264E1,1.203560638E1
5.108738041E0,-4.076466084E0,6.794449687E0,-1.023700595E1,-1.738159180E0,-3.745498657E0,-6.510028839E0,-2.167160797E1,1.041642380E1,8.579574585E0
5.128604984E0,-1.567676425E0,8.473223448E0,-9.996389151E0,-1.425239563E0,-5.091457367E0,-6.927612305E0,-2.028596497E1,7.672069550E0,3.549358368E0
5.148471928E0,-6.284893751E-1,1.054352379E1,-1.130643153E1,-1.574111938E0,-4.860565186E0,-7.204315186E0,-1.856154251E1,6.099082947E0,-1.596378326E0
5.168338871E0,-2.669173479E-1,1.208919120E1,-1.324760294E1,-2.072654724E0,-4.300769806E0,-7.259437561E0,-1.417237473E1,5.763294220E0,-4.886013031E0
5.188205814E0,-1.297000170E0,1.272268772E1,-1.141647482E1,-2.528587341E0,-3.939380646E0,-7.120956421E0,-1.055712509E1,5.936279297E0,-4.357494354E0
5.208072758E0,-2.969330966E0,1.321386337E1,-9.154156685E0,-2.463874817E0,-2.871982574E0,-6.958766937E0,-8.299991608E0,6.711402893E0,-4.314994812E0
5.227939701E0,-4.666129231E0,1.346734381E1,-1.016980600E1,-2.075584412E0,-1.993404388E0,-6.706302643E0,-6.613876343E0,7.375194550E0,-6.175888062E0
5.247806645E0,-6.678662181E0,1.393679810E1,-1.115856099E1,-1.930709839E0,-2.120700836E0,-6.351570129E0,-5.996173859E0,6.994514465E0,-5.148174286E0
5.267673588E0,-8.125985265E0,1.416415071E1,-9.697410345E0,-1.972785950E0,-2.244274139E0,-5.948898315E0,-6.264324188E0,6.682067871E0,-2.419384003E0
5.287540531E0,-8.838393211E0,1.442230105E1,-8.330818534E0,-1.951484680E0,-2.507659912E0,-5.423191071E0,-6.710845947E0,6.270267487E0,-2.931743622E0
5.307407475E0,-8.774046183E0,1.498045468E1,-7.392608762E0,-1.807136536E0,-3.096221924E0,-4.739292145E0,-7.408149719E0,6.217594147E0,-4.642402649E0
5.327274418E0,-7.996643186E0,1.551422977E1,-6.786096931E0,-1.791961670E0,-3.260536194E0,-4.087081909E0,-7.942062378E0,6.321743011E0,-3.949878693E0
5.347141361E0,-5.573668361E0,1.550265932E1,-7.368199587E0,-1.861728668E0,-3.422191620E0,-3.405849457E0,-7.665531158E0,6.358856201E0,-2.807846069E0
5.367008305E0,4.494358301E-1,1.426415181E1,-9.164706707E0,-1.895027161E0,-4.644313812E0,-2.643650055E0,-6.725208282E0,6.919696808E0,-2.214080811E0
5.386875248E0,8.589981318E0,1.176865482E1,-8.817191362E0,-1.993824005E0,-5.848064423E0,-2.064945221E0,-5.132469177E0,7.627182007E0,-1.954914093E0
5.406742191E0,1.452505159E1,8.602289796E0,-6.833767176E0,-1.512863159E0,-5.847526550E0,-1.876392365E0,-2.465324402E0,7.969551086E0,-2.734817505E0
5.426609135E0,1.848994684E1,5.128434420E0,-1.103618503E1,9.329223633E-2,-6.427032471E0,-1.765605927E0,3.194568634E0,7.276432037E0,-5.019489288E0
5.446476078E0,2.087608624E1,3.067591786E0,-1.710841298E1,2.051250458E0,-8.025997162E0,-9.381561279E-1,1.228116226E1,5.231784821E0,-6.488933563E0
5.466343021E0,2.238843918E1,2.808965206E0,-1.328838861E1,3.607334137E0,-6.780437469E0,3.856964111E-1,1.925607300E1,2.455108643E0,-5.092510223E0
5.486209965E0,2.158594799E1,3.180825710E0,-1.389384007E1,4.069927216E0,1.262310028E0,1.308483124E0,2.423421860E1,-8.722343445E-1,-8.428230286E0
5.506076908E0,1.574479151E1,3.643226266E0,-1.007391787E1,3.765258789E0,6.856281281E0,1.856826782E0,2.736463928E1,-3.212566376E0,-1.605257034E1
5.525943852E0,7.215931177E0,4.001652718E0,-6.643883228E0,4.443302155E0,7.556423187E0,3.315971375E0,2.933745575E1,-3.720737457E0,-1.691807175E1
5.545810795E0,5.457131863E0,8.580259442E0,-7.600467324E0,5.240116119E0,7.839252472E0,4.413726807E0,2.853479767E1,-3.800941467E0,-1.298439789E1
5.565677738E0,3.260611713E0,1.496341205E1,-4.406975865E0,5.367954254E0,9.651000977E0,4.314128876E0,2.503687286E1,-3.162887573E0,-1.142278671E1
5.585544682E0,-5.591974139E0,2.085220766E1,-1.207323742E1,4.374858856E0,9.806526184E0,4.406803131E0,1.517455673E1,-3.576484680E0,-5.308589935E0
5.605411625E0,-1.701180029E1,1.978299904E1,-1.542206240E1,2.604656219E0,6.115119934E0,5.816413879E0,1.118102264E1,-2.491455078E-1,-4.542446136E0
5.625278568E0,-1.569347358E1,1.544727683E1,-9.624190450E0,1.311691284E0,4.492462158E0,7.473167419E0,8.359458923E0,5.985355377E0,1.777267456E-1
5.645176029E0,-9.804545403E0,1.478641796E1,-6.173122048E0,1.741519928E0,3.682060242E0,7.722171783E0,2.820243835E-1,1.279566574E1,-3.753555298E0
5.665012455E0,-9.103718042E0,1.618010616E1,-7.778049350E0,3.435295105E0,1.794143677E0,7.004981995E0,-1.418793488E1,1.413043213E1,-8.987880707E0
5.684879398E0,-8.466847658E0,1.692899466E1,-9.459197760E0,3.973785400E0,1.046325684E0,6.295783997E0,-1.796298981E1,1.022668457E1,-4.129444122E0
5.704776859E0,-4.598811626E0,1.543799305E1,-1.171514225E1,2.620635986E0,2.931312561E0,5.554889679E0,-1.338109207E1,8.856605530E0,5.296707153E-1
5.724643803E0,-4.424208045E0,1.190872192E1,-6.878309131E0,1.869621277E0,2.946491241E0,4.993762970E0,-1.249403763E1,1.101976395E1,-1.389083862E-1
5.744510746E0,-4.710909843E0,7.676957726E0,-3.169663668E0,2.859252930E0,2.957145691E0,4.978584290E0,-1.346009445E1,1.328108978E1,-1.825023651E0
5.764377689E0,-2.637697935E0,5.801627636E0,-8.811973453E0,3.670185089E0,2.704414368E0,4.920524597E0,-1.067623901E1,1.351751328E1,-4.256340027E0
5.784244633E0,-2.572364211E0,5.516394734E0,-9.808733582E0,3.248878479E0,1.463375092E0,4.494686127E0,-9.761054993E0,1.146508789E1,-1.686164856E0
5.804111576E0,-2.719959855E0,4.081206441E0,-3.318827152E0,2.561511993E0,1.439678192E0,4.083763123E0,-1.132088089E1,8.004268646E0,3.538585663E0
5.823978520E0,-2.210832477E0,1.638128936E0,1.609338522E0,2.706123352E0,1.790946960E0,3.541275024E0,-9.764644623E0,6.497116089E0,-9.768791199E-1
5.843845463E0,-5.294716358E0,-9.672406912E-1,6.750589848E0,3.053127289E0,2.066585541E0,2.871223450E0,-9.261859894E0,7.246501923E0,-4.857883453E0
5.863712406E0,-1.010500801E1,-2.049626470E0,7.463660598E0,2.500255585E0,2.848751068E0,2.417156219E0,-9.770030975E0,7.119613647E0,5.057296753E-1
5.883579350E0,-1.667242908E1,-6.040700674E-1,1.136063313E1,1.470413208E0,3.057544708E0,2.133529663E0,-8.839286804E0,5.642391205E0,5.440181732E0
5.903446293E0,-2.336858749E1,2.213317275E0,1.628843498E1,9.638824463E-1,2.906543732E0,1.658954620E0,-1.112335968E1,3.728820801E0,1.047099304E1
5.923313236E0,-3.072916746E1,5.942443013E0,1.927150154E1,7.015609741E-1,2.825317383E0,8.890342712E-1,-1.537366104E1,2.655620575E0,1.123593903E1
5.943180180E0,-3.190196133E1,7.893582344E0,1.964571905E1,3.203964233E-2,1.515045166E0,-8.169174194E-2,-2.194814301E1,4.024501801E0,1.385879135E1
5.963047123E0,-3.161746120E1,8.524492025E0,1.789493608E1,-9.772987366E-1,-2.868499756E-1,-1.503814697E0,-2.841667557E1,6.878993988E0,1.789063263E1
5.982914066E0,-2.964154911E1,1.000018096E1,1.325079083E1,-1.807140350E0,-1.796863556E0,-3.013561249E0,-3.644622803E1,1.082882309E1,2.161840057E1
6.002781010E0,-2.326769400E1,1.005742025E1,9.939893723E0,-2.457214355E0,-2.453861237E0,-3.886280060E0,-4.311587143E1,1.354385376E1,2.196915436E1
6.022647953E0,-1.611916685E1,9.571569920E0,6.749238372E0,-2.877998352E0,-1.619762421E0,-4.284957886E0,-4.326012802E1,1.413581467E1,2.104199600E1
6.042484379E0,-1.134030771E1,8.240301847E0,2.215615273E0,-2.887584686E0,-7.182846069E-1,-4.743019104E0,-3.907565689E1,1.517789459E1,1.713525772E1
6.062381840E0,-8.499707699E0,6.579792380E0,-2.638081193E0,-2.767742157E0,-5.536994934E-1,-5.211475372E0,-3.325236130E1,1.505279541E1,1.393660355E1
6.082248783E0,-5.553312540E0,6.019653559E0,-5.820726633E0,-2.528587341E0,-1.280212402E0,-5.542762756E0,-2.635287476E1,1.377729034E1,1.167527771E1
6.102115727E0,-2.294131279E0,6.419574976E0,-7.639063120E0,-2.087032318E0,-2.249603271E0,-5.835449219E0,-2.107186127E1,1.178112030E1,7.846950531E0
6.121982670E0,-7.831859589E-2,7.139780998E0,-8.657644033E0,-1.662261963E0,-3.171852112E0,-6.128398895E0,-1.821018982E1,8.914661407E0,3.150726318E0
6.141849613E0,1.364109516E0,8.049188375E0,-9.904444456E0,-1.533630371E0,-3.469062805E0,-6.371543884E0,-1.552988434E1,6.864028931E0,-3.196678162E-1
6.161716557E0,1.529348016E0,9.491547346E0,-1.076873446E1,-1.638294220E0,-3.364936829E0,-6.541984558E0,-1.211395264E1,5.845897675E0,-2.138668060E0
6.181583500E0,7.592751980E-1,1.088169026E1,-1.039467645E1,-1.709133148E0,-3.242694855E0,-6.580337524E0,-9.198417664E0,5.295829773E0,-2.894634247E0
6.201450443E0,-5.768945217E-1,1.169946432E1,-9.939354420E0,-1.685165405E0,-3.055206299E0,-6.488460541E0,-6.873649597E0,4.987575531E0,-3.603919983E0
6.221317387E0,-1.961330891E0,1.191354299E1,-9.924853086E0,-1.689693451E0,-2.811798096E0,-6.266880035E0,-5.575386047E0,5.146789551E0,-4.352706909E0
6.241184330E0,-3.347028136E0,1.276966929E1,-9.149148941E0,-1.647350311E0,-2.483425140E0,-5.987251282E0,-5.064231873E0,5.620838165E0,-3.992973328E0
6.261051273E0,-5.067327738E0,1.378225136E1,-8.507554293E0,-1.382366180E0,-1.845867157E0,-5.796031952E0,-5.231822968E0,5.732765198E0,-3.321399689E0
6.280918217E0,-6.327395797E0,1.404582834E1,-9.683639050E0,-1.170375824E0,-1.774223328E0,-5.529190063E0,-5.446701050E0,5.247940063E0,-3.266937256E0
6.300785160E0,-6.489647865E0,1.371647644E1,-9.603737593E0,-1.338153839E0,-2.435489655E0,-5.211738586E0,-5.592151642E0,5.335926056E0,-2.853931427E0
6.320652104E0,-6.636241198E0,1.346698308E1,-7.509491920E0,-1.688625336E0,-2.636825562E0,-4.846881866E0,-6.102119446E0,6.087112427E0,-2.115924835E0
6.340519047E0,-6.145695448E0,1.351346517E1,-6.553719521E0,-1.730705261E0,-2.580101013E0,-4.321708679E0,-6.574371338E0,6.331321716E0,-3.114303589E0
6.360385990E0,-4.848737121E0,1.290517712E1,-6.878256559E0,-1.577308655E0,-3.080772400E0,-3.725955963E0,-5.884841919E0,6.038028717E0,-3.974418640E0
6.380252934E0,-1.936657548E0,1.192692542E1,-7.206414223E0,-1.584495544E0,-3.611541748E0,-3.138465881E0,-4.940326691E0,5.711223602E0,-2.400833130E0
6.400119877E0,5.597562313E0,1.081273985E1,-7.396984220E0,-1.581031799E0,-4.300231934E0,-2.566150665E0,-3.719291687E0,5.847690582E0,-1.434173584E0
6.419986820E0,1.401887083E1,8.290053010E0,-5.707587004E0,-1.180233002E0,-5.574291229E0,-2.365081787E0,-1.793750763E0,5.576549530E0,-1.989624023E0
6.439853764E0,1.904303646E1,3.659078717E0,-9.542204618E0,-2.531852722E-1,-7.584980011E0,-2.318481445E0,1.340263367E0,4.821773529E0,-2.930553436E0
6.459720707E0,2.151205921E1,-3.787032366E-1,-1.577513719E1,7.742652893E-1,-9.296325684E0,-1.518997192E0,8.204437256E0,4.031089783E0,-3.975017548E0
6.479587650E0,2.379850006E1,-1.444568992E0,-1.148294854E1,2.240066528E0,-7.648357391E0,-2.811584473E-1,1.795960999E1,2.214488983E0,-2.955089569E0
6.499454594E0,2.328103065E1,-2.841126919E-2,-8.353311181E0,4.249687195E0,-9.233474731E-1,5.185890198E-1,2.452571106E1,-1.828716278E0,-6.093284607E0
6.519321537E0,1.671341324E1,1.115050912E0,-8.090940118E0,5.301639557E0,5.561714172E0,1.544971466E0,2.793864059E1,-5.933574677E0,-1.376012039E1
6.539188480E0,9.604318500E0,3.746155739E0,-8.086950302E0,4.816143036E0,7.742576599E0,3.023822784E0,3.068120193E1,-7.708881378E0,-1.425691605E1
6.559055424E0,5.920460343E0,8.384529829E0,-4.879612923E0,4.326389313E0,7.535919189E0,3.788681030E0,3.125760651E1,-6.745212555E0,-9.501434326E0
6.578922367E0,2.326737046E0,1.210484576E1,-3.846035957E0,4.536247253E0,8.971359253E0,3.999870300E0,2.590237427E1,-5.652256012E0,-7.308944702E0
6.598789311E0,-7.607565522E-1,1.543488860E1,-7.543034554E0,4.371128082E0,1.065421295E1,4.697086334E0,1.807094193E1,-3.818897247E0,-7.174270630E0
6.618656254E0,-6.764851570E0,1.700079966E1,-1.568809795E1,2.885879517E0,8.828880310E0,5.588184357E0,1.292400742E1,3.164863586E-1,-2.724048615E0
6.638523197E0,-1.202458215E1,1.448349261E1,-1.343892598E1,1.340984344E0,6.164920807E0,6.560768127E0,8.375621796E0,4.412963867E0,1.070758820E0
6.658390141E0,-9.788751483E0,1.167756867E1,-9.134210825E0,9.585533142E-1,4.812301636E0,7.711517334E0,3.533348083E0,7.825302124E0,2.082519531E-1
6.678257084E0,-5.137798190E0,1.191082883E1,-9.189000368E0,1.826744080E0,2.817863464E0,8.008197784E0,-3.634292603E0,1.059419632E1,-7.362216949E0
6.698124027E0,-6.273647189E0,1.480175018E1,-9.113385916E0,2.825965881E0,1.267368317E0,7.568241119E0,-1.149565125E1,9.285766602E0,-7.513053894E0
6.717990971E0,-4.931318879E0,1.565863156E1,-1.167099690E1,2.557785034E0,8.953285217E-1,7.053455353E0,-1.323862839E1,6.545001984E0,-2.452903748E0
6.737857914E0,-1.683329582E0,1.378171277E1,-1.132712483E1,1.559364319E0,1.304664612E-1,6.220413208E0,-9.243907928E0,6.525249481E0,-1.992618561E0
6.757724857E0,-1.070517421E0,1.040230942E1,-3.274258971E0,1.754573822E0,-1.497039795E-1,5.353824615E0,-1.053318787E1,1.014468384E1,-2.000400543E0
6.777591801E0,4.734168053E-1,7.188008189E0,-3.560191751E0,2.933025360E0,1.260978699E0,4.652877808E0,-1.101860428E1,1.303209305E1,-3.572189331E0
6.797458744E0,7.301117182E-1,5.337185025E0,-8.685583115E0,3.428371429E0,2.030364990E0,4.085094452E0,-7.858863831E0,1.283636856E1,-5.431289673E0
6.817325688E0,-1.728116274E-1,4.344606221E0,-9.253946066E0,2.980960846E0,2.273242950E0,3.795074463E0,-7.036453247E0,1.061694336E1,2.081111908E0
6.837192631E0,-4.792941809E-1,2.806687772E0,-6.466505647E0,2.778293610E0,2.187225342E0,3.673900604E0,-5.820796967E0,8.179641724E0,4.458557129E0
6.857059574E0,-9.657894373E-1,1.203970075E0,-3.988321662E0,3.264587402E0,1.362442017E0,3.520771027E0,-5.148021698E0,6.934059143E0,-8.128776550E-1
6.876926518E0,-1.786297321E0,9.010976553E-1,-3.254424691E0,3.575908661E0,1.127819061E0,3.172424316E0,-6.161968231E0,6.814350128E0,-3.284290314E0
6.896793461E0,-4.554093957E0,2.126865506E0,-3.913723111E0,3.262985229E0,1.383216858E0,2.831012726E0,-6.704257965E0,6.279243469E0,-1.323436737E0
6.916660404E0,-9.608034134E0,5.195401430E0,-4.641397595E-1,3.163650513E0,1.002384186E0,3.076553345E0,-7.003528595E0,5.370048523E0,9.073562622E-1
6.936527348E0,-1.274401760E1,8.990853071E0,3.508038461E0,3.377235413E0,6.338043213E-1,3.477886200E0,-7.597892761E0,5.405361176E0,1.748325348E0
6.956394291E0,-1.414197826E1,1.258029890E1,2.927312016E0,3.271507263E0,1.109176636E0,3.460582733E0,-9.464775085E0,7.010677338E0,6.044883728E-1
6.976261234E0,-1.765205002E1,1.561208797E1,6.369352460E0,2.942081451E0,1.287345886E0,3.306385040E0,-1.402213669E1,1.008842087E1,1.990734100E0
6.996128178E0,-1.881867552E1,1.428244424E1,7.222611308E0,2.562843323E0,1.213039398E0,2.931674957E0,-1.784866333E1,1.470384216E1,6.728260040E0
7.015995121E0,-1.977575541E1,1.123258805E1,6.892347813E0,2.244060516E0,1.858596802E-1,1.899967194E0,-1.856572723E1,1.875962067E1,5.659847260E0
7.035862064E0,-2.051179123E1,9.111841202E0,7.712584615E0,2.460575104E0,-2.144138336E0,7.084693909E-1,-2.161654282E1,2.292313766E1,7.837974548E0
7.055729008E0,-1.696563053E1,1.061941552E1,9.594899178E0,3.151138306E0,-4.877613068E0,-3.860855103E-1,-2.307162476E1,2.315717316E1,9.136829376E0
7.075595951E0,-1.215993500E1,1.102242875E1,5.001629114E0,3.320514679E0,-6.240615845E0,-1.486503601E0,-2.342356491E1,2.061752319E1,8.338363647E0
7.095462895E0,-7.500351191E0,9.352575064E0,-4.984097183E-2,2.673099518E0,-7.926128387E0,-2.262550354E0,-2.458654785E1,1.807846832E1,8.353923798E0
7.115329838E0,-2.369803548E0,7.030709505E0,1.874980032E-1,1.813694000E0,-8.937328339E0,-2.778137207E0,-2.201697159E1,1.905949783E1,1.030340576E1
7.135196781E0,1.720581293E0,5.102755547E0,3.272652030E-1,1.350036621E0,-8.953044891E0,-3.282543182E0,-1.732673264E1,2.012192154E1,7.580596924E0
7.155063725E0,3.382345200E0,3.445565462E0,-2.290843725E-1,9.990310669E-1,-8.275272369E0,-3.655918121E0,-1.296688843E1,1.881947708E1,1.392780304E0
7.174930668E0,4.127902031E0,2.007523775E0,-1.554615200E0,4.142074585E-1,-6.927444458E0,-3.683082581E0,-8.267074585E0,1.636901093E1,1.101886749E0
7.194828129E0,5.028710604E0,7.504122257E-1,-2.180689216E0,-2.710266113E-1,-5.843269348E0,-3.555515289E0,-3.891071320E0,1.412684250E1,2.051189423E0
7.214695072E0,5.179892778E0,-4.956547022E-1,-1.859093666E0,-7.384147644E-1,-5.049648285E0,-3.463108063E0,-1.915256500E0,1.216479111E1,2.351657867E0
7.234562016E0,4.648360729E0,-1.297468305E0,-2.088789582E0,-9.288291931E-1,-4.254428864E0,-3.348857880E0,-1.309524536E0,1.032424927E1,1.788425446E0
7.254428959E0,3.897897482E0,-1.387484670E0,-3.267925501E0,-1.044414520E0,-3.555351257E0,-3.216495514E0,-4.996833801E-1,8.687812805E0,1.499320984E0
7.274295902E0,3.373044491E0,-1.456242204E0,-4.462403536E0,-1.205261230E0,-3.155338287E0,-2.986667633E0,-1.698837280E-1,7.013072968E0,2.383380890E0
7.294162846E0,3.281277180E0,-1.635612845E0,-5.045030236E0,-1.388225555E0,-2.886894226E0,-2.672412872E0,-6.092185974E-1,5.583732605E0,2.980739594E0
7.314029789E0,3.185199022E0,-1.870766640E0,-5.172218084E0,-1.484893799E0,-2.551067352E0,-2.297439575E0,-1.320293427E0,4.908565521E0,2.536613464E0
7.333896732E0,2.893110633E0,-2.047205329E0,-5.179918408E0,-1.446548462E0,-2.146003723E0,-1.847633362E0,-1.931411743E0,4.401592255E0,1.728569031E0
7.353763676E0,2.359006405E0,-1.964460731E0,-5.324534655E0,-1.354396820E0,-1.587539673E0,-1.310470581E0,-2.027782440E0,3.779102325E0,1.430492401E0
7.373630619E0,1.850730300E0,-1.443169713E0,-5.596757412E0,-1.260395050E0,-9.624938965E-1,-7.043380737E-1,-1.975708008E0,3.094955444E0,1.637588501E0
7.393497563E0,1.319866300E0,-5.868117809E-1,-5.610631704E0,-1.150138855E0,-3.004341125E-1,-3.535079956E-2,-2.049926758E0,2.440143585E0,1.976367950E0
7.413364506E0,1.011709332E0,4.868755341E-1,-5.623980522E0,-1.002334595E0,4.598960876E-1,6.861000061E-1,-2.403076172E0,2.066047668E0,2.167903900E0
7.433231449E0,1.187439680E0,1.610172331E0,-5.575717092E0,-7.946052551E-1,1.309448242E0,1.415538788E0,-2.772979736E0,2.164211273E0,2.103263855E0
7.453098393E0,1.956687927E0,2.531478941E0,-5.472049356E0,-5.581169128E-1,2.147277832E0,1.986789703E0,-3.257205963E0,2.711288452E0,2.140968323E0
7.472965336E0,2.686564922E0,2.960791469E0,-5.259988070E0,-3.780860901E-1,2.912940979E0,2.271747589E0,-3.585208893E0,3.597740173E0,2.221771240E0
7.492832279E0,3.193569303E0,2.980852604E0,-4.774484515E0,-2.233543396E-1,3.565143585E0,2.367088318E0,-3.625911713E0,4.674533844E0,2.173290253E0
7.512699223E0,3.686231613E0,2.664907455E0,-4.211051345E0,7.808685303E-3,4.098041534E0,2.334861755E0,-3.112358093E0,5.742343903E0,2.146358490E0
7.532566166E0,3.680664778E0,2.414800167E0,-3.393238902E0,3.633422852E-1,4.292186737E0,2.196640015E0,-2.505424500E0,6.447437286E0,2.084705353E0
7.552433109E0,2.769559860E0,2.614077806E0,-2.694543719E0,7.838478088E-1,3.773937225E0,2.103702545E0,-2.248050690E0,6.759284973E0,2.176883698E0
7.572300053E0,1.916964531E0,3.162318230E0,-1.913664699E0,1.249370575E0,2.754478455E0,2.068016052E0,-2.069084167E0,6.768859863E0,2.309162140E0
7.592166996E0,1.090747237E0,3.745363235E0,-1.005396724E0,1.726875305E0,1.336879730E0,2.048572540E0,-2.174427032E0,6.737731934E0,2.513271332E0
7.612033939E0,5.344684124E-1,4.079473257E0,-1.242454052E-1,2.140464783E0,-2.487678528E-1,2.049106598E0,-3.218898773E0,7.151336670E0,2.714981079E0
7.631900883E0,7.528946400E-1,4.065703988E0,-3.396679163E-1,2.380683899E0,-1.538803101E0,2.059494019E0,-4.289703369E0,8.017436981E0,2.940635681E0
7.651767826E0,1.288350582E0,3.802010298E0,-8.730469346E-1,2.488540649E0,-2.385158539E0,2.059490204E0,-5.088768005E0,9.033176422E0,3.329093933E0
7.671634770E0,1.637365222E0,3.203335643E0,-1.208244026E0,2.587612152E0,-2.690887451E0,2.079467773E0,-5.611305237E0,9.894489288E0,4.028198242E0
7.691501713E0,1.807094812E0,2.555891633E0,-9.709588885E-1,2.746601105E0,-2.600605011E0,2.113555908E0,-5.291675568E0,1.041822052E1,3.917465210E0
7.711368656E0,2.003269196E0,2.389587522E0,-1.675135493E-1,2.880027771E0,-2.137214661E0,2.098106384E0,-4.295097351E0,1.065883636E1,3.230331421E0
7.731235600E0,2.136032641E0,2.566536903E0,7.874454856E-1,2.872303009E0,-1.473022461E0,2.075469971E0,-3.441562653E0,1.058581543E1,2.782615662E0
7.751102543E0,1.759509027E0,2.728992224E0,1.848849714E0,2.694137573E0,-7.140235901E-1,2.111957550E0,-2.677810669E0,1.030270004E1,2.668891907E0
7.770938969E0,1.175413787E0,2.730737209E0,2.853356779E0,2.459777832E0,2.873611450E-2,2.180934906E0,-2.025989532E0,1.039368057E1,3.132766724E0
7.790836430E0,1.757370234E-1,2.703016043E0,3.641849875E0,2.281616211E0,5.802726746E-1,2.227272034E0,-1.323890686E0,1.087790680E1,3.751670837E0
7.810703373E0,-8.209926784E-1,2.801553011E0,3.721259892E0,2.147655487E0,9.885368347E-1,2.276271820E0,-1.155097961E0,1.139027023E1,4.402290344E0
7.830570316E0,-1.632128656E0,2.979627371E0,3.376504362E0,1.933269501E0,1.234611511E0,2.281867981E0,-1.291568756E0,1.169014359E1,5.013412476E0
7.850437260E0,-2.317090929E0,3.002499580E0,3.562642753E0,1.617687225E0,1.385345459E0,2.216354370E0,-1.781181335E0,1.188287354E1,5.460533142E0
7.870304203E0,-2.993352652E0,2.739736795E0,4.129945457E0,1.318614960E0,1.512916565E0,2.093048096E0,-2.449764252E0,1.213067627E1,5.323463440E0
7.890171146E0,-3.624179065E0,2.156532288E0,4.315673590E0,1.094108582E0,1.544872284E0,1.925270081E0,-2.904056549E0,1.244072342E1,4.595626831E0
7.910038090E0,-4.247513652E0,1.446481466E0,4.032076061E0,8.701400757E-1,1.408779144E0,1.707683563E0,-3.218898773E0,1.263525391E1,4.217338562E0
7.929905033E0,-4.841861963E0,7.568292618E-1,3.690067232E0,6.088790894E-1,1.113708496E0,1.442173004E0,-3.503810883E0,1.251853180E1,4.496261597E0
7.949771977E0,-5.288482785E0,1.376519203E-1,3.781177223E0,3.841094971E-1,6.820030212E-1,1.136173248E0,-3.785125732E0,1.205825043E1,4.581859589E0
7.969638920E0,-5.367697239E0,-3.749732971E-1,3.884790063E0,2.275161743E-1,2.548332214E-1,7.974205017E-1,-4.075424194E0,1.136811829E1,4.204170227E0
7.989505863E0,-5.152083993E0,-7.049984932E-1,3.760370076E0,8.424377441E-2,-6.447982788E-2,4.336318970E-1,-4.388462067E0,1.067500305E1,3.704978943E0
8.009372807E0,-5.000028253E0,-1.013927460E0,3.495134115E0,-1.061820984E-1,-2.295913696E-1,1.199150085E-1,-4.668586731E0,1.001898956E1,3.605022430E0
8.029239750E0,-4.598212957E0,-1.277708054E0,3.470622063E0,-3.144416809E-1,-3.278617859E-1,-1.687736511E-1,-4.676967621E0,9.456352234E0,3.719345093E0
8.049106693E0,-4.317471743E0,-1.467739344E0,3.534386635E0,-4.878082275E-1,-3.198738098E-1,-4.452133179E-1,-4.366317749E0,9.082859039E0,3.633754730E0
8.068973637E0,-4.197479606E0,-1.389060259E0,3.313861370E0,-6.230964661E-1,-3.142814636E-1,-6.723747253E-1,-4.239421844E0,8.754852295E0,3.400917053E0
8.088840580E0,-4.114767671E0,-1.074308872E0,2.995933294E0,-7.591819763E-1,-3.108215332E-1,-8.369598389E-1,-3.861145020E0,8.478919983E0,3.336277008E0
8.108707523E0,-4.023164511E0,-6.031076908E-1,2.638020039E0,-9.099197388E-1,-3.267974854E-1,-9.719810486E-1,-3.631900787E0,8.256259918E0,3.523620605E0
8.128574467E0,-4.071135283E0,1.644990444E-1,2.414162457E0,-1.031894684E0,-3.819274902E-1,-1.066795349E0,-3.593589783E0,8.261642456E0,3.473937988E0
8.148441410E0,-4.021301031E0,1.088734627E0,1.991689503E0,-1.107795715E0,-4.759368896E-1,-1.129646301E0,-3.674396515E0,8.523216248E0,3.326095581E0
8.168308354E0,-3.787345290E0,1.935239077E0,1.494681388E0,-1.187690735E0,-5.963096619E-1,-1.181838989E0,-3.754600525E0,8.943393707E0,3.115409851E0
8.188175297E0,-3.374630570E0,2.632710457E0,1.106196731E0,-1.296875000E0,-6.607551575E-1,-1.231910706E0,-4.004196167E0,9.629333496E0,3.084884644E0
8.208042240E0,-2.847069800E0,3.248791218E0,1.057501853E0,-1.412990570E0,-6.354560852E-1,-1.326717377E0,-4.210700989E0,1.051937866E1,2.928066254E0
8.227909184E0,-2.182496488E0,3.501097918E0,6.598683596E-1,-1.508068085E0,-4.895172119E-1,-1.524856567E0,-4.257984161E0,1.138727570E1,2.655124664E0
8.247776127E0,-1.663545877E0,3.528844357E0,1.929244995E-1,-1.565589905E0,-3.915138245E-1,-1.726989746E0,-4.113136292E0,1.209475708E1,2.473163605E0
8.267643070E0,-1.044042736E0,3.350605726E0,-3.113184571E-1,-1.588756561E0,-2.751350403E-1,-1.903820038E0,-3.870719910E0,1.268014145E1,2.629386902E0
8.287510014E0,-5.683386922E-1,3.035167694E0,-7.649543285E-1,-1.592754364E0,-2.351875305E-1,-2.076931000E0,-3.462509155E0,1.298600388E1,2.652732849E0
8.307376957E0,-2.606798410E-1,2.817557096E0,-8.771197796E-1,-1.564792633E0,-1.523590088E-1,-2.247367859E0,-3.206325531E0,1.296984100E1,2.454612732E0
8.327243900E0,7.146507502E-2,2.414218903E0,-1.421057045E0,-1.504066467E0,-3.198623657E-2,-2.441520691E0,-2.947154999E0,1.273461533E1,2.302574158E0
8.347110844E0,2.400157452E-1,1.867144585E0,-1.888108075E0,-1.435359955E0,-9.616851807E-2,-2.572811127E0,-2.746643066E0,1.229108810E1,2.071540833E0
8.366977787E0,4.682438970E-1,1.424954653E0,-2.083293140E0,-1.334957123E0,-1.885795593E-1,-2.600242615E0,-2.822658539E0,1.187688446E1,2.216388702E0
8.386844730E0,6.977268457E-1,1.018008828E0,-2.434309244E0,-1.198600769E0,-3.773994446E-1,-2.554168701E0,-2.869945526E0,1.133460617E1,2.078723907E0
8.406711674E0,8.849943876E-1,6.923872232E-1,-2.639288902E0,-1.076896667E0,-5.880546570E-1,-2.432727814E0,-3.094997406E0,1.054990005E1,1.765682220E0
8.426578617E0,1.201673269E0,4.118113518E-1,-2.885017633E0,-9.796981812E-1,-7.310638428E-1,-2.254825592E0,-3.325439453E0,9.807102203E0,1.774059296E0
8.446445561E0,1.468869925E0,1.659698486E-1,-3.006636620E0,-8.848876953E-1,-8.626251221E-1,-2.030326843E0,-3.469097137E0,9.095428467E0,1.673503876E0
8.466312504E0,1.802084684E0,-1.076376438E-1,-3.055950642E0,-7.799568176E-1,-8.759384155E-1,-1.756019592E0,-3.648658752E0,8.441806793E0,1.650154114E0
8.486179447E0,2.095169783E0,-1.663659811E-1,-3.039191008E0,-6.718330383E-1,-6.852607727E-1,-1.490505219E0,-3.642673492E0,7.848644257E0,1.599281311E0
8.506046391E0,2.229973197E0,-1.971285343E-1,-3.285602331E0,-5.618438721E-1,-3.126792908E-1,-1.279048920E0,-3.592391968E0,7.320720673E0,1.645366669E0
8.525913334E0,2.207824349E0,-4.979239702E-1,-3.628765464E0,-4.718246460E-1,-8.977890015E-2,-1.068923950E0,-3.458915710E0,6.746116638E0,1.776451111E0
8.545810795E0,2.240475297E0,-8.982437849E-1,-3.668628454E0,-3.999252319E-1,-7.484436035E-3,-8.332366943E-1,-3.267978668E0,6.386383057E0,1.959011078E0
8.565677738E0,2.324793339E0,-1.265346050E0,-3.532517433E0,-2.883377075E-1,7.613372803E-2,-5.778350830E-1,-3.204532623E0,6.179290771E0,1.918903351E0
8.585514164E0,2.142883420E0,-1.349290609E0,-3.122264504E0,-1.045799255E-1,2.279396057E-1,-2.992706299E-1,-3.323047638E0,5.753120422E0,1.620231628E0
8.605411625E0,1.780567050E0,-1.036283255E0,-2.944740891E0,1.111335754E-1,5.416603088E-1,-1.617431641E-2,-3.414623260E0,5.203651428E0,1.543018341E0
8.625248051E0,1.313381433E0,-8.344610929E-1,-3.198984146E0,2.629394531E-1,7.192955017E-1,2.754402161E-1,-3.390678406E0,4.695480347E0,1.662128448E0
8.645145512E0,6.628637314E-1,-8.570028543E-1,-2.906566501E0,3.316497803E-1,6.921272278E-1,6.429557800E-1,-3.561271667E0,4.410568237E0,2.007492065E0
8.665012455E0,2.265132666E-1,-5.117788315E-1,-2.045887113E0,4.922370911E-1,7.102394104E-1,1.112739563E0,-3.941947937E0,4.630840302E0,2.270858765E0
8.684879398E0,5.239963531E-3,2.816896439E-1,-1.502512217E0,8.184738159E-1,7.693634033E-1,1.634983063E0,-4.413608551E0,4.938488007E0,1.928485870E0
8.704746342E0,-1.752119064E-1,1.274923086E0,-1.297874928E0,1.118347168E0,8.572425842E-1,2.136722565E0,-5.064231873E0,4.989967346E0,1.889579773E0
8.724613285E0,-4.459396601E-1,2.368004560E0,-9.013541341E-1,1.243782043E0,1.006114960E0,2.535400391E0,-5.538284302E0,5.330543518E0,2.547389984E0
8.744480229E0,-6.621485949E-1,3.094684839E0,-3.058992624E-1,1.361488342E0,1.014102936E0,2.828876495E0,-5.707668304E0,6.252910614E0,3.069320679E0
8.764347172E0,-5.659458637E-1,3.426400900E0,3.188382983E-1,1.545780182E0,7.669601440E-1,3.007045746E0,-5.732810974E0,7.497898102E0,3.071712494E0
8.784214115E0,-2.616583109E-1,3.954703927E0,7.753780484E-1,1.717021942E0,3.978500366E-1,3.048854828E0,-5.761543274E0,8.940998077E0,3.150123596E0
8.804081059E0,1.314160824E-1,4.490979671E0,9.436377883E-1,1.792125702E0,-5.435943604E-2,2.950054169E0,-5.719043732E0,1.020095062E1,3.417079926E0
8.823948002E0,7.855060697E-1,4.403957844E0,6.573117971E-1,1.669353485E0,-4.226722717E-1,2.695194244E0,-5.355724335E0,1.098744583E1,3.733112335E0
8.843814945E0,1.289591908E0,3.720745564E0,9.118267894E-1,1.411823273E0,-6.383895874E-1,2.307430267E0,-4.662002563E0,1.183498764E1,3.948593140E0
8.863681889E0,1.455040216E0,2.795391798E0,1.588728249E0,1.237651825E0,-6.591606140E-1,1.888252258E0,-3.813259125E0,1.281960297E1,3.927043915E0
8.883548832E0,1.526936710E0,1.955677032E0,1.785949469E0,1.158557892E0,-5.608901978E-1,1.505554199E0,-2.716114044E0,1.322602081E1,3.406307220E0
8.903415775E0,1.564174950E0,1.486095428E0,1.575116158E0,9.878501892E-1,-3.483695984E-1,1.208080292E0,-1.652492523E0,1.293452835E1,3.208183289E0
8.923282719E0,1.761776596E0,1.215990067E0,1.418663561E0,6.927680969E-1,9.558105469E-2,9.982223511E-1,-9.916915894E-1,1.221926117E1,3.682834625E0
8.943149662E0,1.763246715E0,6.710338593E-1,1.313547730E0,3.777198792E-1,7.336692810E-1,8.195228577E-1,-5.499610901E-1,1.147645950E1,3.854019165E0
8.963016605E0,1.353222728E0,-5.686736107E-2,1.289688587E0,1.366996765E-1,1.370166779E0,6.671943665E-1,-2.339286804E-1,1.100120544E1,3.517639160E0
8.982883549E0,7.783503532E-1,-4.967219830E-1,1.216364026E0,7.274627686E-3,1.850334167E0,5.502777100E-1,1.419639587E-1,1.080907059E1,3.166889191E0
9.002750492E0,2.824724913E-1,-5.945961475E-1,9.963681698E-1,-4.865264893E-2,2.007991791E0,4.578666687E-1,4.316596985E-1,1.040625000E1,2.946617126E0
9.022617436E0,-4.067352414E-2,-7.387139797E-1,7.089400291E-1,-1.056442261E-1,1.961391449E0,3.896903992E-1,2.323417664E-1,9.711334229E0,2.828704834E0
9.042484379E0,-2.992971241E-1,-9.356875420E-1,6.139424145E-1,-2.012557983E-1,1.830631256E0,3.390884399E-1,-2.668495178E-1,9.186405182E0,2.752689362E0
9.062351322E0,-5.042305887E-1,-1.073840141E0,6.991943717E-1,-2.702293396E-1,1.583751678E0,2.951507568E-1,-7.516784668E-1,9.045146942E0,2.519256592E0
9.082218266E0,-5.641161799E-1,-1.189918995E0,5.710593164E-1,-2.646331787E-1,1.280155182E0,2.469444275E-1,-1.079677582E0,8.926635742E0,2.218784332E0
9.102085209E0,-4.727992415E-1,-1.175575495E0,2.413433790E-1,-2.534484863E-1,9.685668945E-1,1.974105835E-1,-1.331069946E0,8.738689423E0,2.025451660E0
9.121952152E0,-3.801554441E-1,-8.142192364E-1,1.475045085E-1,-2.505149841E-1,6.889266968E-1,1.553344727E-1,-1.539367676E0,8.578876495E0,2.102062225E0
9.141819096E0,-1.364987195E-1,-3.762235641E-1,7.071754336E-2,-2.289466858E-1,4.271392822E-1,1.271018982E-1,-1.651290894E0,8.455574036E0,2.094882965E0
9.161686039E0,2.585037947E-1,-1.447513103E-1,-1.289099455E-3,-2.254867554E-1,2.290039062E-1,9.514617920E-2,-1.566303253E0,8.387336731E0,1.796806335E0
9.181552982E0,6.366054118E-1,-1.285314560E-3,1.438133717E-1,-2.358703613E-1,2.092971802E-1,4.667663574E-2,-1.470531464E0,8.674049377E0,1.657939911E0
9.201419926E0,8.584470749E-1,1.406190395E-1,2.956312597E-1,-2.164306641E-1,2.929191589E-1,-1.792907715E-3,-1.270019531E0,9.115180969E0,1.650756836E0
9.221286869E0,9.653010964E-1,1.941649914E-1,2.439579070E-1,-1.762161255E-1,3.560333252E-1,-5.851745605E-2,-9.001121521E-1,9.405479431E0,1.584918976E0
9.241153813E0,9.009911120E-1,2.006237507E-1,7.484948635E-2,-1.549148560E-1,4.108963013E-1,-1.101875305E-1,-4.757423401E-1,9.529972076E0,1.702827454E0
9.260990238E0,7.705657780E-1,2.994186878E-1,-2.860283852E-2,-1.437301636E-1,4.194183350E-1,-1.352233887E-1,-2.165679932E-1,9.689788818E0,1.947635651E0
9.280887699E0,7.219574451E-1,3.455657959E-1,-8.520480990E-2,-1.157646179E-1,3.533744812E-1,-1.554603577E-1,-9.386825562E-2,9.746646881E0,1.966793060E0
9.300754643E0,6.995073259E-1,2.955236435E-1,-1.039187610E-1,-8.647155762E-2,2.593612671E-1,-1.674423218E-1,-1.213989258E-1,9.746047974E0,1.844688416E0
9.320621586E0,6.653085053E-1,3.165571690E-1,5.612987280E-2,-5.903625488E-2,1.863937378E-1,-1.597213745E-1,-3.081474304E-1,9.826854706E0,1.726776123E0
9.340488529E0,6.968173981E-1,3.371644020E-1,1.107184589E-1,-3.001022339E-2,1.083641052E-1,-1.296272278E-1,-4.116973877E-1,9.887310028E0,1.681880951E0
9.360355473E0,7.822799981E-1,3.675582409E-1,9.976717830E-2,-2.468490601E-2,2.926635742E-2,-8.781433105E-2,-4.655685425E-1,9.848999023E0,1.657939911E0
9.380222416E0,9.253857732E-1,3.590376377E-1,7.518726587E-2,-4.998397827E-2,1.941299438E-2,-4.547500610E-2,-5.415802002E-1,9.838825226E0,1.783035278E0
9.400089359E0,9.958075881E-1,3.433690071E-1,3.541851044E-2,-9.126281738E-2,2.207946777E-2,-1.750946045E-2,-5.607337952E-1,9.862167358E0,1.900951385E0
9.419956303E0,1.062649161E0,2.987320423E-1,6.806424260E-2,-1.290817261E-1,3.619003296E-2,2.464294434E-3,-5.020751953E-1,9.887310028E0,1.888381958E0
9.439823246E0,1.101531684E0,1.832854748E-1,2.564060688E-2,-1.671600342E-1,8.918762207E-2,1.018905640E-2,-3.763809204E-1,9.899276733E0,1.875213623E0
9.459690189E0,1.044685006E0,7.736253738E-2,1.487343609E-1,-2.063102722E-1,1.696166992E-1,1.578140259E-2,-3.015632629E-1,9.873538971E0,1.839900970E0
9.479557133E0,9.166433215E-1,-8.484148979E-2,2.484611273E-1,-2.289505005E-1,2.633628845E-1,2.909469604E-2,-2.051963806E-1,9.838226318E0,1.893772125E0
9.499424076E0,7.918386161E-1,-3.104503155E-1,2.281273901E-1,-2.441253662E-1,3.174209595E-1,4.401397705E-2,-1.142158508E-1,9.749042511E0,1.884189606E0
9.519291020E0,6.314439178E-1,-5.133233070E-1,1.828698516E-1,-2.467918396E-1,3.523063660E-1,6.025695801E-2,-1.166114807E-1,9.629932404E0,1.988933563E0
9.539157963E0,5.353625715E-1,-6.715719700E-1,4.795950651E-2,-2.353401184E-1,3.389892578E-1,8.129119873E-2,-2.057991028E-1,9.491664886E0,2.165512085E0
9.559024906E0,4.105319381E-1,-7.247598171E-1,4.527825117E-2,-2.145652771E-1,3.107681274E-1,8.555984497E-2,-3.183174133E-1,9.263019562E0,2.209804535E0
9.578891850E0,2.436251342E-1,-6.232867241E-1,6.378889084E-3,-1.794166565E-1,2.702827454E-1,1.020698547E-1,-4.847221375E-1,9.031978607E0,2.212795258E0
9.598758793E0,1.487915516E-1,-4.964253902E-1,-8.470940590E-2,-1.439933777E-1,2.092933655E-1,1.404190063E-1,-5.960502625E-1,8.854213715E0,2.126602173E0
9.618625736E0,1.086758971E-1,-3.286111355E-1,-2.124637365E-2,-1.168289185E-1,2.050323486E-1,1.824951172E-1,-6.954078674E-1,8.754848480E0,2.120620728E0
9.638492680E0,3.125414252E-2,-1.241686344E-1,1.271282434E-1,-7.235336304E-2,2.337989807E-1,2.269744873E-1,-8.570175171E-1,8.819492340E0,2.138576508E0
9.658359623E0,-2.116543055E-2,-9.869241714E-2,1.059473753E-1,-3.427505493E-2,2.236785889E-1,2.525367737E-1,-9.599647522E-1,8.938003540E0,2.073337555E0
9.678226566E0,-9.813004732E-2,-1.656620502E-1,9.940421581E-2,-3.214263916E-2,1.664199829E-1,2.370910645E-1,-9.749336243E-1,9.074478149E0,2.105655670E0
9.698093510E0,-1.807685643E-1,-2.145824432E-1,3.678768873E-2,-3.427124023E-2,3.432464600E-2,2.016677856E-1,-1.034187317E0,9.301322937E0,2.278038025E0
9.717960453E0,-2.168381810E-1,-1.409902573E-1,-5.772197247E-2,-2.335357666E-2,-9.164047241E-2,1.614608765E-1,-1.043167114E0,9.366569519E0,2.294799805E0
9.737827396E0,-2.114986032E-1,1.172637939E-1,-1.668766737E-1,-3.134155273E-2,-1.640777588E-1,1.398849487E-1,-1.077281952E0,9.316886902E0,2.289409637E0
9.757694340E0,-1.534008235E-1,4.781539440E-1,-1.114919782E-1,-7.102584839E-2,-1.510314941E-1,1.494750977E-1,-1.141330719E0,9.251049042E0,2.234340668E0
9.777591801E0,-3.348973393E-2,6.546506882E-1,9.003728628E-2,-1.173667908E-1,-3.544998169E-2,1.646537781E-1,-1.134147644E0,9.298931122E0,2.169097900E0
9.797458744E0,4.028846323E-2,5.550651550E-1,2.679356337E-1,-1.442604065E-1,1.307373047E-1,1.651878357E-1,-1.116191864E0,9.507228851E0,2.054180145E0
9.817325688E0,-4.146510363E-2,3.139886856E-1,4.223467708E-1,-1.309432983E-1,2.923889160E-1,1.393547058E-1,-1.038978577E0,9.857379913E0,2.060161591E0
9.837162113E0,-2.651872784E-1,7.534670830E-2,4.198686481E-1,-7.768249512E-2,3.384552002E-1,8.982086182E-2,-8.989181519E-1,1.012014008E1,2.282226562E0
9.857059574E0,-5.467239618E-1,-2.398242950E-1,2.903853059E-1,-3.719711304E-2,2.231445312E-1,2.989959717E-2,-7.702255249E-1,1.006088638E1,2.474361420E0
9.876926518E0,-7.338364720E-1,-4.520137310E-1,2.910966873E-1,-3.001403809E-2,-1.361846924E-3,-8.453369141E-3,-7.905807495E-1,9.846603394E0,2.674877167E0
9.896793461E0,-6.715583652E-1,-5.095434189E-1,4.304884076E-1,-2.575302124E-2,-2.607574463E-1,-2.283096313E-2,-9.665489197E-1,9.608982086E0,2.733535767E0
9.916660404E0,-4.908740222E-1,-3.981347084E-1,4.824264050E-1,-2.441787720E-2,-4.423789978E-1,-2.470016479E-2,-1.255649567E0,9.311500549E0,2.628787994E0
9.936527348E0,-3.208898455E-1,-2.469842434E-1,4.064880610E-1,-6.303024292E-2,-5.084266663E-1,-1.590728760E-2,-1.492675781E0,9.052330017E0,2.587490082E0
9.956394291E0,-1.257558316E-1,-6.181001663E-2,3.691678047E-1,-1.474609375E-1,-4.764671326E-1,-1.377868652E-2,-1.492675781E0,8.934413910E0,2.708396912E0
9.976230717E0,1.156931072E-1,-2.794098854E-2,3.716643453E-1,-2.230949402E-1,-3.691444397E-1,-3.561401367E-2,-1.308925629E0,9.033775330E0,2.819728851E0
9.996128178E0,3.089546859E-1,-6.775331497E-2,4.115961790E-1,-2.651672363E-1,-1.781921387E-1,-8.036041260E-2,-1.131752014E0,9.151092529E0,2.771842957E0
1.001596460E1,3.586192131E-1,-9.127616882E-2,3.974821568E-1,-2.851409912E-1,3.645706177E-2,-1.341552734E-1,-9.204635620E-1,9.349208832E0,2.754482269E0
1.003583155E1,1.435595751E-1,-1.929063797E-1,2.426939607E-1,-2.955284119E-1,2.218132019E-1,-1.879501343E-1,-6.642837524E-1,9.413856506E0,2.779624939E0
1.005572901E1,-1.546902061E-1,-3.481178284E-1,5.140948296E-2,-3.053855896E-1,2.966499329E-1,-2.401504517E-1,-4.547920227E-1,9.368366241E0,2.874794006E0
1.007559595E1,-4.066991508E-1,-3.618283272E-1,-2.080720663E-2,-2.909965515E-1,2.194175720E-1,-2.662467957E-1,-3.626136780E-1,9.318687439E0,2.932849884E0
1.009546290E1,-5.020678341E-1,-2.771463394E-1,-7.631033659E-2,-2.425308228E-1,6.867980957E-2,-2.734336853E-1,-5.415840149E-1,9.243263245E0,2.878383636E0
1.011532984E1,-5.382186174E-1,-1.296498775E-1,-2.063269615E-1,-2.068443298E-1,-9.457015991E-2,-2.707786560E-1,-9.001159668E-1,9.055919647E0,2.716773987E0
1.013519678E1,-3.631121218E-1,-2.587056160E-2,-1.513920426E-1,-2.023162842E-1,-2.232017517E-1,-2.611846924E-1,-1.232311249E0,8.972724915E0,2.660514832E0
1.015506372E1,-1.177345812E-1,3.560328484E-2,-1.995021105E-2,-1.937942505E-1,-2.650184631E-1,-2.630500793E-1,-1.438808441E0,9.028984070E0,2.685050964E0
1.017493067E1,-4.111647606E-3,-5.275297165E-2,9.123635292E-2,-1.684951782E-1,-2.546272278E-1,-2.840881348E-1,-1.535175323E0,9.143909454E0,2.586292267E0
1.019479761E1,-1.788017154E-2,-8.770632744E-2,5.386662483E-2,-1.386680603E-1,-2.306556702E-1,-3.144454956E-1,-1.457363129E0,9.245662689E0,2.625793457E0
1.021466456E1,-4.536542296E-2,-4.165458679E-2,-4.572558403E-2,-1.229515076E-1,-2.506332397E-1,-3.386802673E-1,-1.247272491E0,9.305515289E0,2.811943054E0
1.023453150E1,-3.344479203E-2,3.000617027E-2,-1.660243273E-1,-1.328125000E-1,-2.900466919E-1,-3.546638489E-1,-1.123371124E0,9.226509094E0,2.959190369E0
1.025439844E1,1.730647683E-2,-4.069876671E-2,-2.146182656E-1,-1.687622070E-1,-3.132133484E-1,-3.727722168E-1,-1.161682129E0,9.151691437E0,3.002883911E0
1.027426539E1,5.473071337E-2,-1.876702309E-1,-1.589615941E-1,-1.969947815E-1,-3.148155212E-1,-3.996734619E-1,-1.228721619E0,9.173839569E0,2.934047699E0
1.029413233E1,8.901819587E-2,-3.200969696E-1,-4.388815165E-2,-1.791496277E-1,-3.238677979E-1,-4.209785461E-1,-1.286178589E0,9.234287262E0,2.852043152E0
1.031399927E1,1.045046151E-1,-4.097261429E-1,-6.980717182E-2,-1.322708130E-1,-3.166732788E-1,-4.329566956E-1,-1.286178589E0,9.183410645E0,2.798774719E0
1.033386622E1,8.989632130E-2,-4.525985718E-1,-1.388034225E-1,-9.578704834E-2,-2.780647278E-1,-4.284324646E-1,-1.290969849E0,9.020606995E0,2.878978729E0
1.035373316E1,5.096217990E-2,-4.867672920E-1,-1.651655436E-1,-6.595993042E-2,-2.394485474E-1,-4.180450439E-1,-1.317306519E0,8.858398438E0,3.036994934E0
1.037360010E1,-6.488606334E-2,-5.259521008E-1,-2.183697224E-1,-3.187942505E-2,-2.487678528E-1,-4.209747314E-1,-1.349025726E0,8.733898163E0,3.084884644E0
1.039346705E1,-1.772066355E-1,-5.716962814E-1,-3.091962934E-1,6.206512451E-3,-3.345222473E-1,-4.396209717E-1,-1.413070679E0,8.662673950E0,3.050167084E0
1.041333399E1,-1.886019707E-1,-6.010355949E-1,-4.122329950E-1,4.083251953E-2,-4.668846130E-1,-4.625244141E-1,-1.507045746E0,8.604015350E0,3.031612396E0
1.043320093E1,-1.229985952E-1,-6.132116318E-1,-4.569431543E-1,6.106948853E-2,-5.712738037E-1,-4.918136597E-1,-1.653087616E0,8.546554565E0,3.005275726E0
1.045306788E1,-7.400771976E-2,-6.539463997E-1,-4.746550918E-1,5.228424072E-2,-6.423835754E-1,-5.091285706E-1,-1.847019196E0,8.483703613E0,2.934047699E0
1.047293482E1,2.819618583E-2,-7.069108486E-1,-5.148118138E-1,2.911376953E-2,-6.399917603E-1,-5.072669983E-1,-1.949970245E0,8.422058105E0,2.837680817E0
1.049280176E1,5.798700452E-2,-6.302087307E-1,-5.207982063E-1,1.553344727E-2,-5.763359070E-1,-4.987411499E-1,-1.936203003E0,8.412479401E0,2.799976349E0
1.051266871E1,-1.336770654E-1,-1.808657646E-1,-4.183076620E-1,4.642105103E-2,-4.698104858E-1,-4.438781738E-1,-1.940399170E0,8.352622986E0,2.762268066E0
1.053253565E1,-2.479659319E-1,3.670718670E-1,-4.531971812E-1,8.983230591E-2,-3.523674011E-1,-3.304290771E-1,-1.909870148E0,8.275409698E0,2.758075714E0
1.055240259E1,-1.478712559E-1,3.573985100E-1,-7.359071970E-1,3.549957275E-2,-2.580909729E-1,-2.135162354E-1,-1.879940033E0,8.272418976E0,2.738319397E0
1.057226954E1,-4.213541746E-2,-3.599810600E-2,-5.298815370E-1,-8.779907227E-2,-1.238632202E-1,-1.288299561E-1,-2.075668335E0,8.610000610E0,2.853244781E0
1.059213648E1,-1.377884746E-1,-2.148675919E-1,-1.075448990E-1,-8.407592773E-2,-1.094818115E-3,-7.503128052E-2,-2.279773712E0,9.184612274E0,2.872997284E0
1.061200342E1,-4.466669559E-1,9.238982201E-2,-1.292396188E-1,6.399536133E-2,1.062393188E-2,-1.792907715E-3,-2.264213562E0,9.340232849E0,2.608436584E0
1.063187037E1,-5.516685247E-1,7.569248676E-1,-4.365987182E-1,1.651954651E-1,-2.692794800E-2,1.097908020E-1,-2.149288177E0,8.969131470E0,2.664104462E0
1.065173731E1,-5.139505267E-1,1.450119019E0,-3.651835322E-1,1.407012939E-1,-3.384780884E-2,2.277679443E-1,-2.203159332E0,8.687812805E0,3.118404388E0
1.067160425E1,-4.017788172E-1,1.754124165E0,8.924806118E-2,1.215209961E-1,2.394104004E-2,3.223114014E-1,-2.489864349E0,8.864982605E0,3.262050629E0
1.069147120E1,-2.740998566E-1,1.680418015E0,4.062913060E-1,1.915626526E-1,1.049003601E-1,3.718490601E-1,-2.671817780E0,9.473709106E0,2.910701752E0
1.071133814E1,-2.304661274E-1,1.480276823E0,2.897160053E-1,2.890396118E-1,1.557655334E-1,3.758430481E-1,-2.612567902E0,1.022788239E1,2.845462799E0
1.073120508E1,-2.000603080E-1,1.225197077E0,8.731681108E-2,3.265876770E-1,1.728134155E-1,3.297729492E-1,-2.474300385E0,1.067380142E1,3.211181641E0
1.075107203E1,-3.373407423E-1,8.715682030E-1,2.189028859E-1,3.252563477E-1,1.443138123E-1,2.520027161E-1,-2.291744232E0,1.070133972E1,3.582279205E0
1.077093897E1,-5.353836715E-1,4.759762287E-1,4.987436533E-1,3.598785400E-1,3.644943237E-2,1.854248047E-1,-2.163650513E0,1.055529022E1,3.531406403E0
1.079080591E1,-7.059157491E-1,1.115486622E-1,5.284863114E-1,4.094085693E-1,-1.337242126E-1,1.478767395E-1,-2.074474335E0,1.036255646E1,3.231529236E0
1.081067286E1,-7.622659206E-1,-2.150278091E-1,4.269957542E-1,4.142036438E-1,-3.017616272E-1,1.279029846E-1,-2.130134583E0,1.006627274E1,3.200401306E0
1.083053980E1,-7.220172882E-1,-4.665305614E-1,5.096891522E-1,3.854446411E-1,-4.389190674E-1,1.324272156E-1,-2.282768250E0,9.702354431E0,3.437431335E0
1.085040674E1,-5.783027709E-1,-6.590433121E-1,7.361070514E-1,3.771858215E-1,-5.062980652E-1,1.553306580E-1,-2.444972992E0,9.365367889E0,3.479331970E0
1.087027369E1,-4.645702839E-1,-7.805531025E-1,9.028840661E-1,3.891716003E-1,-4.687461853E-1,2.016716003E-1,-2.494651794E0,9.039760590E0,3.283008575E0
1.089014063E1,-4.300282001E-1,-7.049696445E-1,9.709472656E-1,3.897018433E-1,-3.270645142E-1,2.703781128E-1,-2.443176270E0,8.806926727E0,3.264450073E0
1.091000757E1,-4.547782838E-1,-6.170778275E-1,1.069886446E0,3.707962036E-1,-1.265258789E-1,3.524017334E-1,-2.272590637E0,8.618377686E0,3.430244446E0
1.092987452E1,-5.275714993E-1,-7.399237156E-1,1.057778239E0,3.297805786E-1,8.811950684E-2,4.232444763E-1,-2.078659058E0,8.499267578E0,3.566116333E0
1.094974146E1,-7.341857553E-1,-9.403526783E-1,1.104322135E0,2.871742249E-1,2.798728943E-1,4.757080078E-1,-1.963733673E0,8.547752380E0,3.600833893E0
1.096960840E1,-9.909001887E-1,-1.076247692E0,1.140229583E0,2.797164917E-1,4.034385681E-1,5.127296448E-1,-1.903884888E0,8.689010620E0,3.633159637E0
1.098947535E1,-1.265991688E0,-1.209932327E0,1.071895421E0,2.821121216E-1,4.324684143E-1,5.329704285E-1,-1.899696350E0,8.639328003E0,3.588264465E0
1.100934229E1,-1.563980520E0,-1.196786165E0,1.005918920E0,2.613410950E-1,4.053039551E-1,5.572052002E-1,-1.995460510E0,8.463951111E0,3.545768738E0
1.102920923E1,-1.830713689E0,-9.095838070E-1,1.078752160E0,2.488212585E-1,3.573646545E-1,5.944862366E-1,-2.182807922E0,8.334068298E0,3.552951813E0
1.104907618E1,-2.165860832E0,-3.207802773E-1,1.095939994E0,2.714614868E-1,2.804031372E-1,6.496124268E-1,-2.375541687E0,8.214359283E0,3.452991486E0
1.106894312E1,-2.303974032E0,5.458240509E-1,1.036110997E0,2.932968140E-1,1.866569519E-1,7.185935974E-1,-2.596405029E0,8.199394226E0,3.300361633E0
1.108884058E1,-1.913008511E0,9.018695354E-1,6.813157797E-1,2.205886841E-1,1.214103699E-1,7.313766479E-1,-2.784950256E0,8.427444458E0,3.318317413E0
1.110870752E1,-1.435819983E0,6.675555706E-1,7.111514211E-1,2.964401245E-2,1.845283508E-1,6.038093567E-1,-3.026168823E0,8.950572968E0,3.289588928E0
1.112857447E1,-1.200003028E0,3.300457001E-1,1.137079477E0,-9.605789185E-2,3.512420654E-1,3.753089905E-1,-3.135101318E0,9.824462891E0,3.234519958E0
1.114844141E1,-1.122311741E0,2.200376987E-1,9.776296020E-1,-1.075096130E-1,4.399261475E-1,9.141921997E-2,-2.761005402E0,1.039427948E1,2.859230042E0
1.116830835E1,-1.238577247E0,5.646793842E-1,2.587593198E-1,-1.642341614E-1,3.821372986E-1,-2.089881897E-1,-2.121757507E0,1.027098083E1,2.701210022E0
1.118817530E1,-1.131269887E0,1.090747356E0,-2.856546044E-1,-3.189659119E-1,2.351264954E-1,-4.731750488E-1,-1.757236481E0,9.942970276E0,3.128578186E0
1.120804224E1,-6.955317557E-1,1.381760359E0,-2.097095847E-1,-4.973907471E-1,1.488456726E-1,-7.229804993E-1,-1.597423553E0,9.747844696E0,3.196811676E0
1.122790918E1,-3.917404711E-1,1.518426180E0,9.749501944E-2,-6.119117737E-1,1.879920959E-1,-9.693222046E-1,-1.718334198E0,9.956737518E0,2.578506470E0
1.124777613E1,-1.748698056E-1,1.809956789E0,1.085147858E-1,-6.468009949E-1,1.967811584E-1,-1.156276703E0,-1.791358948E0,1.050321579E1,1.952426910E0
1.126764307E1,3.235336840E-1,1.890202761E0,-3.153820634E-1,-7.187004089E-1,1.919822693E-1,-1.307807922E0,-1.518417358E0,1.083660889E1,1.948234558E0
1.128751001E1,8.596169055E-1,1.698107481E0,-5.811193585E-1,-8.736991882E-1,2.902526855E-1,-1.467597961E0,-1.317298889E0,1.093836212E1,2.360042572E0
1.130737696E1,1.106295288E0,1.520596504E0,-2.064395547E-1,-9.432106018E-1,4.369926453E-1,-1.595428467E0,-1.321491241E0,1.118017578E1,2.597064972E0
1.132724390E1,1.238075912E0,1.395501852E0,-1.535702944E-1,-8.590545654E-1,4.833335876E-1,-1.653224945E0,-1.137741089E0,1.127594376E1,2.371414185E0
1.134711084E1,1.421003580E0,1.356572866E0,-5.971098542E-1,-7.948684692E-1,3.914566040E-1,-1.646560669E0,-8.270912170E-1,1.105508041E1,2.113433838E0
1.136697779E1,1.772642791E0,1.339848280E0,-8.893598318E-1,-8.342857361E-1,2.873229980E-1,-1.586906433E0,-8.073387146E-1,1.077555466E1,2.539005280E0
1.138684473E1,2.193525910E0,1.085645199E0,-6.839297414E-1,-8.526573181E-1,2.178230286E-1,-1.502754211E0,-9.880981445E-1,1.051818085E1,2.889160156E0
1.140671167E1,2.404823601E0,7.065193653E-1,-4.113664031E-1,-7.525291443E-1,1.893196106E-1,-1.398090363E0,-1.140735626E0,1.033502197E1,2.658714294E0
1.142657862E1,2.430006981E0,6.004011631E-1,-5.089319944E-1,-5.860786438E-1,1.291313171E-1,-1.238033295E0,-1.146717072E0,1.021112061E1,2.386974335E0
1.144644556E1,2.565405905E0,5.376777649E-1,-8.081495166E-1,-4.822158813E-1,-4.024505615E-2,-1.015926361E0,-9.887008667E-1,9.889102936E0,2.597663879E0
1.146631250E1,2.804522038E0,3.926012516E-1,-8.641390204E-1,-4.595794678E-1,-1.430435181E-1,-7.871627808E-1,-9.617614746E-1,9.347415924E0,3.043586731E0
1.148617945E1,2.936423123E0,1.380531788E-1,-7.062944174E-1,-4.116401672E-1,-1.694030762E-1,-5.570640564E-1,-1.141925812E0,9.034969330E0,3.172866821E0
1.150604639E1,2.929866195E0,-1.403856277E-2,-5.478536487E-1,-2.955322266E-1,-1.752662659E-1,-3.093872070E-1,-1.245479584E0,8.862586975E0,2.926868439E0
1.152591333E1,2.956693053E0,-1.174855232E-2,-7.224575877E-1,-1.698265076E-1,-1.717987061E-1,-4.839706421E-2,-1.138935089E0,8.644119263E0,2.883773804E0
1.154578028E1,3.032395065E0,1.736211777E-2,-9.424765110E-1,-1.123046875E-1,-1.409149170E-1,2.112579346E-1,-1.050949097E0,8.322097778E0,3.086078644E0
1.156564722E1,3.109937489E0,3.160762787E-2,-8.216403723E-1,-9.632492065E-2,-2.852249146E-2,4.573326111E-1,-1.091053009E0,8.056339264E0,3.356624603E0
1.158551416E1,3.074047685E0,9.170699120E-2,-5.807436705E-1,-4.439544678E-2,1.211433411E-1,6.911582947E-1,-1.077285767E0,7.995887756E0,3.302753448E0
1.160538111E1,3.004654109E0,8.941006660E-2,-6.285873055E-1,2.378463745E-2,3.086318970E-1,9.020805359E-1,-9.845085144E-1,8.018630981E0,3.079502106E0
1.162524805E1,2.823796988E0,7.270097733E-2,-7.052857876E-1,5.254364014E-2,5.147628784E-1,1.087966919E0,-8.181114197E-1,8.045566559E0,3.144737244E0
1.164511499E1,2.531304479E0,1.255085468E-1,-5.843883753E-1,7.518386841E-2,7.147636414E-1,1.263477325E0,-7.277336121E-1,8.129962921E0,3.400314331E0
1.166498194E1,2.190148532E0,2.209761143E-1,-5.389294028E-1,1.284484863E-1,8.785476685E-1,1.428852081E0,-6.678771973E-1,8.216747284E0,3.414085388E0
1.168484888E1,1.885231316E0,3.233838081E-1,-6.070691347E-1,1.862411499E-1,9.962615967E-1,1.573993683E0,-6.708717346E-1,8.256858826E0,3.266841888E0
1.170471582E1,1.635376632E0,3.835270405E-1,-6.553785801E-1,2.046165466E-1,1.083347321E0,1.692512512E0,-7.845954895E-1,8.384948730E0,3.295570374E0
1.172458277E1,1.382246435E0,4.746456146E-1,-5.420809388E-1,1.995582581E-1,1.148593903E0,1.770809174E0,-9.581718445E-1,8.562717438E0,3.320114136E0
1.174444971E1,1.162226200E0,5.144407749E-1,-4.081091285E-1,2.080764771E-1,1.193069458E0,1.805160522E0,-1.070102692E0,8.772808075E0,3.174064636E0
1.176431665E1,8.988243639E-1,5.673470497E-1,-3.816753030E-1,2.269859314E-1,1.221832275E0,1.799835205E0,-1.134746552E0,8.946384430E0,3.003479004E0
1.178418360E1,6.301437020E-1,6.695077419E-1,-3.539276719E-1,2.245864868E-1,1.218105316E0,1.758022308E0,-1.161682129E0,9.154682159E0,2.983127594E0
1.180405054E1,4.179682136E-1,7.209062576E-1,-2.970528603E-1,1.798439026E-1,1.167499542E0,1.694370270E0,-1.150306702E0,9.304920197E0,3.051364899E0
1.182391748E1,3.408342302E-1,5.757057667E-1,-1.764269471E-1,1.212539673E-1,1.152851105E0,1.589710236E0,-1.161087036E0,9.447376251E0,2.994503021E0
1.184378443E1,1.708651781E-1,3.619034290E-1,7.459324598E-2,9.249496460E-2,1.179218292E0,1.454689026E0,-1.188613892E0,9.629928589E0,2.921482086E0
1.186365137E1,-2.055458724E-2,3.422727585E-1,3.726882339E-1,1.257820129E-1,1.207450867E0,1.316204071E0,-1.196399689E0,9.786750793E0,2.898136139E0
1.188351831E1,-2.353146970E-1,3.701939583E-1,4.892156124E-1,1.636009216E-1,1.166172028E0,1.169467926E0,-1.058727264E0,9.759216309E0,2.922679901E0
1.190338526E1,-3.505227566E-1,2.900567055E-1,4.512659311E-1,1.287193298E-1,1.091331482E0,1.016063690E0,-9.934883118E-1,9.583843231E0,3.091464996E0
1.192325220E1,-3.810125142E-1,7.398080826E-2,5.988449454E-1,3.071212769E-2,1.026084900E0,8.632011414E-1,-9.982757568E-1,9.542541504E0,3.349441528E0
1.194311914E1,-3.395666480E-1,-2.483179569E-1,8.184698224E-1,-3.800201416E-2,1.002384186E0,7.071380615E-1,-1.057533264E0,9.623344421E0,3.494892120E0
1.196298609E1,-2.853730917E-1,-6.390314102E-1,8.585495949E-1,-5.344390869E-2,9.789466858E-1,5.476150513E-1,-1.064716339E0,9.604194641E0,3.414085388E0
1.198285303E1,-2.564159930E-1,-9.380028248E-1,7.730863094E-1,-5.424499512E-2,9.621696472E-1,3.918228149E-1,-1.002471924E0,9.435405731E0,3.457782745E0
1.200271998E1,-3.400838450E-1,-1.028248310E0,8.863977790E-1,-5.051803589E-2,9.390029907E-1,2.520065308E-1,-8.881454468E-1,9.149295807E0,3.700195312E0
1.202258692E1,-4.154009596E-1,-1.108967066E0,1.005898416E0,-3.027725220E-2,9.102401733E-1,1.300315857E-1,-7.636413574E-1,8.766815186E0,3.789379120E0
1.204245386E1,-4.506535530E-1,-1.312262535E0,9.235656261E-1,-3.560638428E-2,8.388633728E-1,1.312255859E-2,-7.037887573E-1,8.431632996E0,3.720542908E0
1.206232080E1,-4.979347587E-1,-1.495651245E0,9.991309047E-1,-4.838943481E-2,7.456550598E-1,-9.341049194E-2,-7.397003174E-1,8.286781311E0,3.764839172E0
1.208218775E1,-5.887594074E-1,-1.339197397E0,1.264010012E0,1.926040649E-2,6.583061218E-1,-1.794281006E-1,-8.600082397E-1,8.217350006E0,3.937217712E0
1.210205469E1,-8.474011719E-1,-7.323291302E-1,1.447130740E0,1.739883423E-1,5.320701599E-1,-2.156486511E-1,-9.270515442E-1,8.039581299E0,3.885746002E0
1.212192164E1,-1.047425032E0,-4.083347321E-2,1.267126977E0,2.818450928E-1,3.435173035E-1,-1.946067810E-1,-1.041374207E0,7.807342529E0,3.913276672E0
1.214178858E1,-1.185787976E0,3.756554127E-1,1.246640980E0,2.488212585E-1,1.429824829E-1,-1.562576294E-1,-1.156890869E0,7.848045349E0,4.130550385E0
1.216165552E1,-1.292260110E0,3.992056847E-1,1.427099109E0,1.715888977E-1,-5.542373657E-2,-1.053924561E-1,-1.462154388E0,8.347835541E0,4.362789154E0
1.218152246E1,-1.268774897E0,1.452529430E-1,1.318381071E0,1.319122314E-1,-2.879180908E-1,-5.559158325E-2,-1.779983521E0,9.078067780E0,4.213752747E0
1.220141993E1,-1.131252408E0,1.156911850E-1,1.053666532E0,9.569549561E-2,-4.687423706E-1,-7.286071777E-4,-1.958950043E0,9.593418121E0,4.056930542E0
1.222128687E1,-9.462477267E-1,3.902301788E-1,8.314135075E-1,4.349136353E-2,-4.855270386E-1,7.037734985E-2,-2.124748230E0,9.734676361E0,4.207767487E0
1.224112330E1,-9.021139145E-1,7.868318558E-1,9.139072299E-1,-8.972167969E-3,-3.326568604E-1,1.614570618E-1,-2.151683807E0,9.506027222E0,4.171253204E0
1.226099024E1,-1.060668468E0,1.242341042E0,1.195524275E0,-1.855468750E-2,-6.021118164E-2,2.815666199E-1,-2.027782440E0,9.406074524E0,3.892921448E0
1.228085718E1,-1.297178239E0,1.583959579E0,1.200111926E0,1.766586304E-2,2.324638367E-1,4.165878296E-1,-1.817092896E0,9.620952606E0,3.639739990E0
1.230075464E1,-1.488154650E0,1.539446592E0,8.752944469E-1,1.366806030E-2,4.947853088E-1,5.108604431E-1,-1.684219360E0,1.000522232E1,3.647518158E0
1.232059107E1,-1.830313861E0,1.378238440E0,6.574345827E-1,-2.681350708E-2,6.556434631E-1,5.417518616E-1,-1.749458313E0,1.046191788E1,3.936618805E0
1.234045801E1,-2.044826090E0,1.051416874E0,3.882097006E-1,-3.826522827E-2,6.447219849E-1,5.161895752E-1,-1.935604095E0,1.087730789E1,4.029994965E0
1.236035547E1,-2.111921310E0,5.254852772E-1,-7.741075754E-2,-6.596374512E-2,4.942512512E-1,4.064674377E-1,-2.063694000E0,1.093297577E1,3.766033173E0
1.238019190E1,-2.142736554E0,-3.330349922E-2,-3.676382303E-1,-1.415977478E-1,2.756080627E-1,2.338943481E-1,-2.316879272E0,1.079411316E1,3.493091583E0
1.240008936E1,-2.137120008E0,-5.838510990E-1,-3.456276059E-1,-1.900672913E-1,2.340316772E-2,3.709030151E-2,-2.530567169E0,1.053433990E1,3.285396576E0
1.241995630E1,-2.131765246E0,-1.055560350E0,-3.726003766E-1,-1.911315918E-1,-2.383804321E-1,-1.440086365E-1,-2.577251434E0,1.006148911E1,2.846660614E0
1.243982325E1,-2.004468679E0,-1.372747183E0,-5.279368162E-1,-2.036476135E-1,-4.405174255E-1,-2.814254761E-1,-2.579051971E0,9.494056702E0,2.477954865E0
1.245969019E1,-1.813163698E0,-1.504695892E0,-5.811262727E-1,-2.664985657E-1,-5.169487000E-1,-3.770332336E-1,-2.571865082E0,8.927829742E0,2.483940125E0
1.247955713E1,-1.664671838E0,-1.578401089E0,-5.386081934E-1,-3.378715515E-1,-4.626197815E-1,-4.305648804E-1,-2.589820862E0,8.416069031E0,2.534217834E0
1.249942408E1,-1.647388041E0,-1.529580832E0,-4.246422052E-1,-3.658332825E-1,-3.459777832E-1,-4.364242554E-1,-2.522190094E0,8.040782928E0,2.416305542E0
1.251929102E1,-1.717490733E0,-1.270635366E0,-4.559698105E-1,-3.578453064E-1,-2.021598816E-1,-3.871536255E-1,-2.375537872E0,7.834278107E0,2.380390167E0
1.253915796E1,-1.826338738E0,-7.451837063E-1,-5.280936360E-1,-3.541221619E-1,-5.728912354E-2,-2.984695435E-1,-2.268398285E0,7.727138519E0,2.455207825E0
1.255902491E1,-1.963415951E0,-4.557108879E-2,-5.897573233E-1,-3.658370972E-1,8.785629272E-2,-1.882171631E-1,-2.281570435E0,7.704395294E0,2.632980347E0
1.257889185E1,-2.087483406E0,7.501447201E-1,-4.765301347E-1,-3.866081238E-1,1.661453247E-1,-8.089065552E-2,-2.383323669E0,7.858821869E0,2.717372894E0
1.259875879E1,-2.027726561E0,1.664690495E0,-3.935750723E-1,-4.185676575E-1,1.853294373E-1,2.803039551E-2,-2.560493469E0,8.295162201E0,2.706600189E0
1.261862574E1,-1.686928451E0,2.241238117E0,-6.568899155E-1,-4.856758118E-1,2.092933655E-1,7.170867920E-2,-2.761005402E0,8.930820465E0,2.695827484E0
1.263849268E1,-1.301709771E0,2.441677332E0,-7.711828351E-1,-6.108436584E-1,2.377929688E-1,1.578140259E-2,-2.924411774E0,9.666439056E0,2.815536499E0
1.265835962E1,-7.702930123E-1,2.458189487E0,-5.548705459E-1,-7.077865601E-1,2.572326660E-1,-1.205711365E-1,-2.972896576E0,1.056725693E1,3.020835876E0
1.267822657E1,-3.335506022E-1,2.460567713E0,-4.177209735E-1,-7.591819763E-1,1.951789856E-1,-3.208427429E-1,-2.692176819E0,1.122866058E1,2.911903381E0
1.269809351E1,6.580734253E-2,2.493555307E0,-6.579167843E-1,-8.361511230E-1,1.294021606E-1,-5.381546021E-1,-2.329452515E0,1.149201965E1,2.787998199E0
1.271796045E1,4.362891018E-1,2.784181595E0,-8.154565096E-1,-9.037933350E-1,1.533699036E-1,-7.434844971E-1,-1.857791901E0,1.147885895E1,3.044181824E0
1.273782740E1,7.905353010E-1,3.010155439E0,-7.033070326E-1,-9.029922485E-1,2.404518127E-1,-9.168548584E-1,-1.438209534E0,1.146089554E1,3.394336700E0
1.275769434E1,1.012923986E0,2.861171246E0,-6.261564493E-1,-8.995323181E-1,2.897224426E-1,-1.023117065E0,-1.125766754E0,1.138727570E1,3.348243713E0
1.277756128E1,1.240209430E0,2.108494282E0,-4.714285135E-1,-9.757003784E-1,3.275413513E-1,-1.055343628E0,-8.636016846E-1,1.157162857E1,3.276420593E0
1.279742823E1,1.665434182E0,6.007785797E-1,-4.168379307E-1,-1.132560730E0,3.469810486E-1,-1.073188782E0,-6.571006775E-1,1.174700165E1,3.495491028E0
1.281729517E1,1.995532751E0,-9.923336506E-1,-3.312582970E-1,-1.264923096E0,3.014450073E-1,-1.089164734E0,-5.858764648E-1,1.163926315E1,3.732517242E0
1.283716211E1,2.238612473E0,-2.086432219E0,-5.182262659E-1,-1.239089966E0,3.222122192E-1,-1.095817566E0,-5.792884827E-1,1.096170425E1,4.008445740E0
1.285702906E1,2.113828897E0,-2.462660193E0,-1.020912528E0,-1.075836182E0,3.515090942E-1,-1.042022705E0,-3.907470703E-1,9.493461609E0,4.262233734E0
1.287689600E1,1.898803949E0,-2.140630722E0,-1.346497416E0,-8.718338013E-1,4.255447388E-1,-8.513412476E-1,-2.435035706E-1,7.673866272E0,4.510032654E0
1.289676294E1,1.946588099E0,-1.656975508E0,-1.370931625E0,-6.840858459E-1,5.688209534E-1,-5.812988281E-1,-1.525230408E-1,6.242134094E0,4.630939484E0
1.291662989E1,1.929825246E0,-1.280831695E0,-7.697660923E-1,-5.242919922E-1,7.917289734E-1,-3.211097717E-1,-3.685989380E-1,5.498733521E0,4.329868317E0
1.293649683E1,2.040539503E0,-9.569406509E-1,4.314579964E-1,-3.413352966E-1,1.222629547E0,-8.994674683E-2,-8.049468994E-1,5.505317688E0,4.068897247E0
1.295636377E1,2.297156572E0,-8.467826843E-1,9.861525297E-1,-1.381340027E-1,1.780826569E0,3.948593140E-2,-9.665489197E-1,5.866847992E0,4.029396057E0
1.297623072E1,1.974258363E0,-1.120386839E0,1.100585580E0,3.976821899E-2,2.185626984E0,5.652999878E-2,-1.067108154E0,6.163722992E0,4.499259949E0
1.299609766E1,7.107244134E-1,-1.344212532E0,8.895455599E-1,1.763877869E-1,2.150741577E0,4.987335205E-2,-1.179637909E0,6.427688599E0,5.649669647E0
1.301596460E1,-5.286118388E-1,-1.254297614E0,7.495050430E-1,2.562789917E-1,1.472434998E0,9.434890747E-2,-1.032989502E0,6.588695526E0,6.369125366E0
1.303583155E1,-9.310182333E-1,-1.252947927E0,8.554215431E-1,2.541503906E-1,5.128936768E-1,9.754180908E-2,-1.343040466E0,6.388183594E0,6.460704803E0
1.305569849E1,-5.579558015E-1,-1.430065870E0,1.422009468E0,1.795768738E-1,-4.250717163E-1,8.289718628E-2,-2.619750977E0,6.097286224E0,6.116542816E0
1.307556543E1,4.651811123E-1,-1.515315413E0,2.533151269E0,1.207199097E-1,-9.438514709E-1,4.933929443E-2,-4.189746857E0,6.158336639E0,5.744243622E0
1.309543238E1,1.074627459E0,-1.507343173E0,3.679898381E0,8.450698853E-2,-1.211502075E0,-1.990890503E-2,-4.883468628E0,6.233158112E0,5.696357727E0
1.311529932E1,1.528233349E0,-1.649535894E0,3.982108951E0,-2.042388916E-2,-1.276481628E0,-4.999542236E-2,-4.737422943E0,6.115840912E0,6.019577026E0
1.313516626E1,1.790278554E0,-1.612169266E0,4.493614554E0,-1.650352478E-1,-1.093254089E0,-8.248901367E-2,-3.712699890E0,5.990745544E0,7.135272980E0
1.315503321E1,1.300169706E0,-1.471702456E0,4.690065622E0,-3.320121765E-1,-9.968452454E-1,-1.413421631E-1,-2.825653076E0,6.008106232E0,8.382053375E0
1.317490015E1,8.810529113E-1,-1.374142885E0,4.888130903E0,-5.394744873E-1,-1.116161346E0,-7.183837891E-2,-2.292339325E0,5.901561737E0,9.009334564E0
1.319476709E1,1.483222246E0,-7.685551643E-1,5.204811931E0,-7.730331421E-1,-1.004310608E0,7.247924805E-5,-1.782970428E0,5.835720062E0,9.541446686E0
1.321463404E1,1.165515542E0,1.076098680E-1,4.996250749E0,-9.533309937E-1,-4.447822571E-1,-1.021995544E-1,-1.964336395E0,5.953037262E0,9.951454163E0
1.323450098E1,-8.000078201E-1,1.299211502E0,4.141151786E0,-1.070777893E0,1.669502258E-1,-8.701324463E-2,-2.492858887E0,5.954830170E0,1.029681396E1
1.325436792E1,-2.401899338E0,3.487164378E0,3.561630726E0,-1.211654663E0,4.146270752E-1,2.099266052E-1,-1.924236298E0,6.346282959E0,1.076188660E1
1.327423487E1,-2.204819381E0,4.618130684E0,2.489606261E0,-1.428173065E0,4.500465393E-1,4.030075073E-1,-1.713542938E0,7.090278625E0,1.101567841E1
1.329410181E1,-1.929556429E0,3.190764427E0,1.706907868E0,-1.745349884E0,5.110321045E-1,2.679824829E-1,-3.374523163E0,8.000080109E0,1.035308075E1
1.331396875E1,-2.646555364E0,1.883192778E0,1.378980517E0,-1.876647949E0,5.123634338E-1,1.297683716E-1,-5.349140167E0,9.869354248E0,9.914943695E0
1.333383570E1,-3.234131813E0,1.813811779E0,-6.313619614E-1,-1.693157196E0,1.128883362E-1,1.318931580E-1,-5.560424805E0,1.144772720E1,9.154186249E0
1.335370264E1,-3.182303667E0,1.753975868E0,-3.415508389E0,-1.633766174E0,-3.544960022E-1,9.940719604E-2,-5.097743988E0,1.034938812E1,8.335971832E0
1.337356958E1,-2.965695858E0,1.328034401E0,-4.251026750E0,-1.892623901E0,-7.816696167E-1,2.829742432E-2,-5.719642639E0,8.548950195E0,8.263545990E0
1.339343653E1,-2.306019962E0,8.818194866E-1,-4.044100642E0,-1.924049377E0,-9.182853699E-1,-3.395080566E-3,-6.476211548E0,8.013248444E0,7.023944855E0
1.341330347E1,-2.081632674E0,3.492667675E-1,-5.180494547E0,-1.588226318E0,-1.075942993E0,-7.929229736E-2,-6.554618835E0,7.854629517E0,4.365779877E0
1.343317041E1,-2.871536136E0,8.225142956E-2,-6.460513592E0,-1.396213531E0,-1.579021454E0,-7.050704956E-2,-6.288860321E0,7.220767975E0,3.087276459E0
1.345303736E1,-2.545423746E0,9.252011776E-2,-5.762754440E0,-1.491821289E0,-2.463718414E0,1.524009705E-1,-5.646015167E0,6.525249481E0,3.649314880E0
1.347290430E1,-8.218837678E-1,6.266081333E-2,-3.628623962E0,-1.467849731E0,-3.010734558E0,4.440193176E-1,-5.003173828E0,5.714813232E0,3.017246246E0
1.349277124E1,1.991945505E-2,2.508685589E-1,-2.726145983E0,-1.015647888E0,-2.385688782E0,6.125946045E-1,-5.491592407E0,5.101299286E0,1.817756653E0
1.351263819E1,2.746927738E-2,5.933815241E-1,-3.911181927E0,-4.531860352E-1,-9.443855286E-1,6.288452148E-1,-5.372482300E0,4.863674164E0,2.062561035E0
1.353250513E1,-2.215361595E-1,1.687815309E0,-4.946802378E0,-1.740875244E-1,5.557746887E-1,6.336364746E-1,-3.323047638E0,4.571578979E0,4.271808624E0
1.355237207E1,-1.044055700E0,2.782589436E0,-5.544401407E0,-2.521896362E-2,1.335281372E0,6.474838257E-1,-1.578269958E0,4.510528564E0,6.083621979E0
1.357223902E1,-1.869026214E0,2.869163990E0,-6.023713589E0,1.931610107E-1,1.462577820E0,7.761154175E-1,-1.100028992E0,4.678722382E0,5.216320038E0
1.359210596E1,-1.720311463E0,2.861745000E0,-6.761814117E0,4.392356873E-1,1.374431610E0,8.355026245E-1,-1.158088684E0,5.489162445E0,4.070098877E0
1.361197290E1,-2.423512042E0,3.594729424E0,-6.877970695E0,6.829185486E-1,1.208248138E0,6.791725159E-1,-1.933216095E0,6.771255493E0,3.290187836E0
1.363183985E1,-4.510897994E0,4.715434313E0,-6.615750551E0,6.682662964E-1,-1.494331360E-1,4.645271301E-1,-3.097393036E0,7.113624573E0,2.933448792E0
1.365170679E1,-4.296032786E0,3.965167999E0,-4.579231024E0,2.530822754E-1,-2.256519318E0,5.388259888E-1,-3.307483673E0,7.117813110E0,1.954223633E0
1.367157373E1,-1.364223063E-1,3.296904206E0,1.266078711E0,-2.894020081E-1,-4.023799896E0,8.536148071E-1,-3.708515167E0,7.735519409E0,1.604671478E0
1.369147120E1,6.799572229E0,2.508939743E0,8.675441742E0,-3.786201477E-1,-3.064529419E0,9.058113098E-1,-5.884841919E0,9.149898529E0,1.699237823E0
1.371133814E1,7.400990844E0,2.587383509E0,6.858582735E0,-9.365844727E-2,4.609642029E-1,-7.316589355E-2,-6.394805908E0,8.903293610E0,2.798179626E0
1.373120508E1,7.124831975E-1,2.166417599E0,8.935196400E-1,-2.108345032E-1,1.533687592E0,-4.145851135E-1,-2.559295654E0,8.230518341E0,7.685344696E0
1.375107203E1,-6.430210024E-1,2.299872041E0,-1.400992155E0,-1.559791565E-1,4.433822632E-1,5.519866943E-2,4.795692444E0,7.421276093E0,1.616920090E1
1.377093897E1,3.108920977E-1,2.259267330E0,-2.960913181E0,2.197914124E-1,-9.470481873E-1,1.934051514E-3,8.448043823E0,7.152534485E0,1.656842804E1
1.379080591E1,7.540777475E-1,1.184618950E0,-3.048516273E0,3.289833069E-1,-1.597660065E0,6.105422974E-2,2.107597351E0,7.056762695E0,1.060028458E1
1.381067286E1,2.322041601E0,2.433025122E0,-2.129849672E0,1.803817749E-1,-3.624839783E-1,-1.830673218E-2,-1.251464844E0,6.757488251E0,7.651824951E0
1.383053980E1,-6.112287939E-2,3.183700323E0,-2.584057331E0,1.510848999E-1,1.123291016E0,-3.948783875E-1,-9.626007080E-2,7.177669525E0,6.083621979E0
1.385040674E1,-2.443810046E0,3.075012326E0,-4.067047596E0,-7.171630859E-4,1.381881714E0,-5.205764771E-1,3.867721558E-1,5.956027985E0,5.158863068E0
1.387027369E1,-2.631890059E0,1.573881149E0,-2.187096834E0,-4.044532776E-1,3.576316833E-1,-4.872894287E-1,2.218933105E0,6.831108093E0,6.348777771E0
1.389014063E1,-2.093474716E-1,-8.864951134E-2,1.006051064E0,-5.410728455E-1,-6.713867188E-2,-3.450775146E-1,9.128913879E-1,7.921070099E0,6.268569946E0
1.391000757E1,1.619235665E0,9.919135571E-1,1.343230963E0,-1.266860962E-1,8.079719543E-1,-3.834266663E-1,-2.285758972E0,8.000675201E0,4.478313446E0
1.392987452E1,8.278253227E-1,2.944280028E0,-2.225272894E0,1.678657532E-1,1.997341156E0,-5.488090515E-1,-3.263191223E0,6.990921021E0,5.562282562E0
1.394974146E1,-1.431636095E0,2.869511247E0,-4.750254393E0,-2.917976379E-1,2.007465363E0,-5.410842896E-1,-1.481304169E0,4.839134216E0,8.848922729E0
1.396960840E1,-2.160469979E0,1.838615775E0,-1.487138033E0,-7.764968872E-1,1.291336060E0,-4.185791016E-1,8.602256775E-1,5.174320221E0,1.019446564E1
1.398947535E1,-1.293154389E0,1.447094679E0,1.347767591E0,-3.985900879E-1,6.521759033E-1,-3.370857239E-1,4.358520508E-1,7.274635315E0,7.404022217E0
1.400934229E1,9.063827991E-2,2.291300416E0,2.060971260E-1,2.325439453E-2,5.669555664E-1,-3.128547668E-1,-2.172630310E0,7.778018951E0,3.791770935E0
1.402920923E1,5.569850206E-1,2.211351156E0,-2.037773848E0,-3.866081238E-1,7.501831055E-1,-3.072586060E-1,-3.759387970E0,6.679679871E0,5.890289307E0
1.404907618E1,3.249435425E-1,1.528381705E0,-1.358814240E-1,-8.816909790E-1,1.115837097E0,-2.436103821E-1,-3.370330811E0,5.894977570E0,9.378643036E0
1.406894312E1,-5.637058020E-1,1.027726054E0,1.431104183E0,-6.137733459E-1,9.925308228E-1,-1.583900452E-1,-2.178615570E0,6.533630371E0,9.427124023E0
1.408881006E1,-6.792154908E-1,8.317881823E-1,-1.385271549E-1,-2.345428467E-1,5.214195251E-1,2.643203735E-2,-1.481906891E0,6.797592163E0,6.556476593E0
1.410867701E1,4.665863514E-2,1.101814151E0,-1.558500528E0,-4.318809509E-1,2.577629089E-1,8.742141724E-2,-1.860786438E0,6.019474030E0,7.676959991E0
1.412854395E1,2.140980959E-1,1.208498716E0,-4.675478935E-1,-6.241607666E-1,3.672218323E-1,1.127204895E-1,-2.686786652E0,5.320369720E0,9.796428680E0
1.414838038E1,-1.387235522E-1,6.219252348E-1,-9.141373634E-2,-4.198989868E-1,3.834648132E-1,1.702423096E-1,-3.442756653E0,4.955253601E0,8.914768219E0
1.416827784E1,-5.042025447E-1,1.159039140E-1,-7.488842010E-1,-3.181610107E-1,2.266044617E-1,3.060646057E-1,-2.718505859E0,5.082744598E0,6.986236572E0
1.418814478E1,-5.655250549E-1,1.240266562E-1,-8.692841530E-1,-5.314826965E-1,-8.525085449E-2,4.038047791E-1,-2.479690552E0,5.244953156E0,7.686538696E0
1.420801172E1,-2.189718485E-1,2.883643508E-1,2.555656433E-1,-5.863418579E-1,-2.807273865E-1,4.932861328E-1,-2.743648529E0,4.749351501E0,8.508350372E0
1.422787867E1,3.685233593E-1,9.103677869E-1,4.300484657E-1,-4.028511047E-1,-2.130813599E-1,5.409545898E-1,-3.254207611E0,4.019115448E0,7.994796753E0
1.424774561E1,1.134992242E-1,1.046133161E0,-4.789011478E-1,-3.442649841E-1,9.292602539E-3,5.558700562E-1,-3.335617065E0,3.943103790E0,7.515354156E0
1.426761255E1,-4.521334767E-1,3.925008774E-1,-8.733272552E-2,-4.545173645E-1,-5.169677734E-2,7.188568115E-1,-3.091411591E0,3.949687958E0,8.572391510E0
1.428747950E1,-2.604247928E-1,-1.889634132E-1,9.257616997E-1,-3.546524048E-1,-1.265258789E-1,8.898315430E-1,-2.367164612E0,4.442295074E0,9.209255219E0
1.430734644E1,2.559066415E-1,-5.774484873E-1,1.144746542E0,-1.248245239E-1,-5.169296265E-2,9.646682739E-1,-2.309101105E0,4.772094727E0,8.361705780E0
1.432721338E1,6.066244245E-1,-3.564578295E-1,6.397280693E-1,-3.374099731E-2,4.066352844E-1,9.830398560E-1,-2.897476196E0,4.195690155E0,8.404800415E0
1.434708033E1,3.327248096E-1,5.031992197E-1,1.159593821E0,7.172393799E-2,9.555130005E-1,1.014732361E0,-2.825649261E0,3.536087036E0,9.479194641E0
1.436694727E1,1.049805284E-1,5.281590819E-1,1.581950665E0,3.628044128E-1,1.141937256E0,1.010208130E0,-2.261817932E0,3.085983276E0,9.977191925E0
1.438681421E1,-7.065112591E-1,-7.448638082E-1,1.428537607E0,5.356407166E-1,8.599052429E-1,9.814414978E-1,-1.739879608E0,3.100345612E0,9.491168976E0
1.440667809E1,-3.903150558E-1,-1.387770236E0,1.591708899E0,3.992881775E-1,4.918594360E-1,1.039234161E0,-1.923034668E0,3.986198425E0,9.737171173E0
1.442654504E1,6.533755064E-1,-3.996231556E-1,2.270478725E0,3.335113525E-1,5.424575806E-1,8.597373962E-1,-2.280971527E0,4.386627197E0,1.018489075E1
1.444638146E1,7.301790118E-1,1.177177429E-1,1.985634089E0,3.612098694E-1,7.680244446E-1,6.056671143E-1,-3.083026886E0,3.515144348E0,1.018069458E1
1.446627892E1,8.209458590E-1,-7.366883755E-2,5.391726494E-1,1.558761597E-1,1.115566254E0,5.526733398E-1,-3.257801056E0,2.582599640E0,1.001071167E1
1.448614587E1,7.376622558E-1,-9.413933754E-2,4.095222950E-1,-1.674308777E-1,1.346199036E0,5.918235779E-1,-2.138511658E0,3.422367096E0,1.062721634E1
1.450601281E1,5.693906546E-1,-1.090514660E-1,3.885664940E-1,-2.558479309E-1,1.495601654E0,6.163253784E-1,-1.897296906E0,4.299240112E0,1.068288422E1
1.452587975E1,7.374916673E-1,-3.529672623E-1,2.063329220E-1,-2.374725342E-1,1.705459595E0,5.697212219E-1,-1.985290527E0,4.278289795E0,9.254142761E0
1.454574670E1,8.814590573E-1,-1.009483218E0,-2.075061798E-1,-3.690338135E-1,2.091083527E0,4.434890747E-1,-2.113971710E0,4.204071045E0,8.681930542E0
1.456561364E1,6.299630404E-1,-2.015246868E0,-1.809459925E-1,-4.941978455E-1,2.462863922E0,3.790397644E-1,-2.469512939E0,4.250759125E0,8.664569855E0
1.458548058E1,-4.971752167E-1,-2.787943125E0,7.229495049E-2,-3.807487488E-1,2.694293976E0,1.928825378E-1,-2.619750977E0,4.054431915E0,8.506553650E0
1.460534753E1,-2.994632959E0,-3.660288453E0,-1.440748334E0,-2.974700928E-2,2.643692017E0,-7.583236694E-2,-2.646682739E0,3.522922516E0,7.908000946E0
1.462521447E1,-3.077896833E0,-4.277401686E0,-1.595474720E0,2.829093933E-1,2.041019440E0,-1.445388794E-1,-3.108165741E0,2.483238220E0,7.727840424E0
1.464508141E1,-7.208487988E-1,-3.572953820E0,-4.084712267E-1,2.682647705E-1,1.977901459E0,-1.280250549E-1,-4.260375977E0,1.614139557E0,7.903812408E0
1.466494836E1,3.570935726E-1,-2.273082376E0,-9.662686586E-1,-6.305694580E-3,2.332633972E0,1.215133667E-1,-7.133415222E0,6.995582581E-1,6.531932831E0
1.468481530E1,1.849024415E0,-1.004935980E0,1.756416798E0,-1.014579773E0,2.639961243E0,4.362945557E-1,-8.358650208E0,-7.496643066E-2,5.493450165E0
1.470468224E1,3.129652739E-1,-3.686921835E0,2.632497668E0,-6.004600525E-1,2.483634949E0,5.239143372E-1,-6.615074158E0,2.991294861E-1,6.427188873E0
1.472454919E1,2.156305909E0,-3.680174112E0,1.965626001E0,-1.077964783E0,1.856460571E0,9.713249207E-1,-5.473632812E0,1.514789581E0,6.428386688E0
1.474441613E1,1.699711561E0,-1.160005212E0,3.001934171E0,-1.260391235E0,1.951801300E0,1.067733765E0,-4.208301544E0,3.267337799E0,5.292938232E0
1.476428307E1,-3.892282248E-1,-4.587985873E-1,1.838977814E0,-1.138420105E0,2.035156250E0,9.790496826E-1,-5.599933624E0,9.329910278E-1,1.164475250E1
1.478415002E1,-1.274692416E0,-1.093237042E0,1.740289450E0,-1.220977783E0,8.250160217E-1,1.060009003E0,-4.975044250E0,-1.092529297E-2,7.212486267E0
1.480401696E1,3.974077702E-1,-6.624615788E-1,2.197260261E0,-1.305664062E0,2.164878845E-1,1.185173035E0,-4.352550507E0,2.220474243E0,9.094329834E0
1.482388390E1,1.020563483E0,-1.717696190E-1,2.084602833E0,-1.321376801E0,6.724166870E-1,1.116199493E0,-6.570777893E0,3.615097046E0,8.163578033E0
1.484375085E1,-3.027619123E-1,-4.050918221E-1,6.489630938E-1,-1.352272034E0,1.127288818E0,9.761161804E-1,-8.215602875E0,3.009365082E0,7.187351227E0
1.486361779E1,-1.306618094E0,-1.031244874E0,7.551670074E-3,-1.370643616E0,8.324775696E-1,8.874359131E-1,-6.845512390E0,3.129074097E0,7.981025696E0
1.488348473E1,2.279815674E-1,-1.382333934E0,4.663996696E-1,-1.361591339E0,6.455192566E-1,8.506813049E-1,-5.637042999E0,3.789875031E0,8.037887573E0
1.490335168E1,1.519142628E0,-1.015581846E0,8.259512186E-1,-1.326171875E0,1.017032623E0,8.054084778E-1,-6.628837585E0,3.708473206E0,6.937751770E0
1.492321862E1,3.968311548E-1,-7.388714552E-1,-2.233231068E-1,-1.166114807E0,1.281482697E0,7.071380615E-1,-8.154544830E0,3.072216034E0,5.765785217E0
1.494308556E1,-1.495248914E0,-9.289174676E-1,-1.707358479E0,-9.240341187E-1,5.278053284E-1,7.058067322E-1,-7.041240692E0,2.534114838E0,6.198543549E0
1.496295251E1,-7.565294504E-1,-1.470475554E0,-9.171797037E-1,-6.792869568E-1,-6.804656982E-1,7.790412903E-1,-5.535289764E0,2.724452972E0,6.649250031E0
1.498281945E1,3.355877399E-1,-9.355949163E-1,7.612380981E-1,-7.288284302E-1,-7.981796265E-1,7.888984680E-1,-5.980609894E0,3.056648254E0,5.939373016E0
1.500268639E1,3.071962595E-1,1.526842117E-1,5.584346056E-1,-7.253608704E-1,4.125213623E-2,5.401573181E-1,-8.243129730E0,2.957286835E0,4.197589874E0
1.502255334E1,-1.583620548E0,-6.289709210E-1,-6.422694921E-1,-5.133781433E-1,5.195541382E-1,3.132591248E-1,-8.065361023E0,2.360534668E0,4.463340759E0
1.504242028E1,-2.289770246E0,-2.155155003E0,-2.194111824E0,-2.702293396E-1,-3.768692017E-1,2.735748291E-1,-6.633033752E0,2.641262054E0,6.336807251E0
1.506231774E1,-7.354735136E-1,-5.044054389E-1,-9.584236145E-2,-1.951293945E-1,-1.621097565E0,4.136581421E-1,-6.140422821E0,3.802444458E0,6.880889893E0
1.508218469E1,1.813269854E0,2.157481015E0,5.596290827E-1,-2.159004211E-1,-9.579696655E-1,2.517356873E-1,-7.831325531E0,3.539680481E0,5.679004669E0
1.510205163E1,1.461876512E0,2.156457901E0,-2.153332233E-1,-1.826095581E-1,6.681442261E-2,-1.107139587E-1,-8.975757599E0,1.827228546E0,4.095832825E0
1.512191857E1,1.778171062E-1,4.868271351E-1,-1.818499804E0,-9.506225586E-3,3.853263855E-1,-2.132492065E-1,-7.908538818E0,2.584991455E0,5.324058533E0
1.514178552E1,-5.358239412E-1,-3.801184297E-1,-1.817616940E0,7.065963745E-2,-2.165451050E-1,-1.778259277E-1,-5.110313416E0,5.416728973E0,7.063449860E0
1.516165246E1,-1.382922530E0,4.898086190E-1,-9.500764608E-1,1.468238831E-1,-2.911071777E-1,-2.031326294E-1,-4.397445679E0,6.268474579E0,6.496025085E0
1.518151940E1,-2.510421634E0,1.671684265E0,-1.134614825E0,2.264518738E-1,-2.690086365E-1,-2.462692261E-1,-5.893817902E0,4.691890717E0,4.909263611E0
1.520138635E1,-2.889964819E0,2.633931577E0,-1.737639427E0,2.805137634E-1,-4.817924500E-1,-4.598617554E-1,-6.783264160E0,3.413387299E0,4.417259216E0
1.522122277E1,-2.461115122E0,1.989021301E0,-2.616281748E0,2.387008667E-1,-7.470436096E-1,-7.626609802E-1,-7.445262909E0,3.895816803E0,5.420429230E0
1.524112023E1,-2.608108163E0,1.781614065E0,-1.974775076E0,1.779823303E-1,-7.124214172E-1,-8.329696655E-1,-8.490932465E0,5.147384644E0,5.323463440E0
1.526098718E1,-3.168402195E0,1.665673316E0,-1.873516321E0,2.035522461E-1,-5.158843994E-1,-1.061733246E0,-9.382171631E0,6.258895874E0,4.909866333E0
1.528085412E1,-3.611032605E0,6.194459796E-1,-3.720546722E0,2.219276428E-1,-1.137462616E0,-1.297958374E0,-8.740524292E0,5.932682037E0,3.994678497E0
1.530072106E1,-1.028337002E0,-1.488725960E0,-3.531938434E0,4.506912231E-1,-1.772094727E0,-1.348819733E0,-8.860832214E0,5.412544250E0,4.401695251E0
1.532058801E1,1.672739387E0,-3.732785702E0,-1.917199612E0,5.593490601E-1,-2.826972961E0,-1.293426514E0,-9.181659698E0,5.340118408E0,4.834445953E0
1.534045495E1,3.752053142E0,-5.135437131E0,-2.319434881E-1,7.375144958E-1,-1.430679321E0,-1.150413513E0,-1.005374908E1,4.557216644E0,3.731918335E0
1.536032189E1,8.203419447E-1,-6.268216968E0,-4.189833403E-1,1.165748596E0,2.804031372E-1,-1.453750610E0,-7.870830536E0,2.405429840E0,3.083686829E0
1.538018884E1,-4.864099026E0,-6.416379571E0,-5.241203308E-1,1.052562714E0,-1.662109375E0,-9.301719666E-1,-5.089962006E0,-6.718444824E-2,3.827682495E0
1.540005578E1,-2.281268597E0,-5.500640392E0,-1.048192024E0,6.480293274E-1,-3.360404968E0,-5.745697021E-2,-2.255828857E0,-1.621623993E0,6.997608185E0
1.541992272E1,1.204557061E0,-4.426097393E0,1.348206162E0,4.320449829E-1,-5.184135437E0,2.080612183E-1,-3.409839630E0,-2.965965271E0,7.451908112E0
1.543978967E1,2.277943552E0,-3.583857417E0,1.805411100E0,4.879722595E-1,-4.939926147E0,4.386940002E-1,-9.668277740E0,-3.366394043E0,6.288925171E0
1.545965661E1,2.344657600E0,-2.183988154E0,2.084788084E0,6.693344116E-1,-4.220340729E0,6.554756165E-1,-9.024833679E0,-2.669681549E0,6.688755035E0
1.547952355E1,2.065171301E0,-6.902506351E-1,1.095540047E0,7.859802246E-1,-3.273319244E0,7.228546143E-1,-4.066448212E0,-1.431880951E0,8.295269012E0
1.549939050E1,1.647391558E0,3.876106739E-1,7.769374847E-1,7.383079529E-1,-3.037895203E0,8.272514343E-1,-1.894306183E0,-5.466232300E-1,1.029382324E1
1.551925744E1,1.921679318E0,7.325074077E-1,1.860634327E0,8.046226501E-1,-2.411251068E0,9.819755554E-1,-6.858329773E-1,8.061027527E-1,1.053384399E1
1.553912438E1,1.487214208E0,1.679163694E0,1.201629639E-2,1.121269226E0,-1.526557922E0,9.782485962E-1,-2.854042053E-1,2.497001648E0,1.012563324E1
1.555899133E1,-7.858022526E-1,3.987644315E0,-3.944218159E0,7.050209045E-1,-1.381675720E0,1.118598938E0,-2.383804321E-2,3.936519623E0,9.478000641E0
1.557885827E1,1.268033817E0,3.590885997E0,3.895411015E0,3.497505188E-1,-1.529750824E0,1.285308838E0,5.747146606E-1,4.517711639E0,1.053743744E1
1.559872521E1,2.317733586E0,1.974354625E0,1.131433487E0,9.779968262E-1,-1.019218445E0,1.218200684E0,1.040988922E0,5.293430328E0,9.652175903E0
1.561859216E1,1.829279304E0,2.526970506E0,-5.133011341E0,8.656082153E-1,4.899940491E-1,1.201953888E0,-9.468040466E-1,7.848648071E0,5.053512573E0
1.563845910E1,-2.105452791E-1,3.605543494E0,-8.409314156E-1,-2.518501282E-1,4.191513062E-1,1.204090118E0,5.501747131E-1,8.335865021E0,1.112461472E1
1.565832604E1,-1.416858971E0,2.027318239E0,-1.702864170E-1,4.291191101E-1,-1.271953583E0,1.240837097E0,2.618167877E0,6.743122101E0,1.084150314E1
1.567819299E1,4.970249087E-1,1.642305017E0,3.472480536E0,3.790512085E-1,-4.911193848E-1,1.101821899E0,2.631332397E0,6.708404541E0,5.304904938E0
1.569805993E1,1.539359391E-1,1.894096851E0,7.724456787E-1,4.466934204E-1,4.079666138E-1,5.702514648E-1,6.561164856E-1,8.467548370E0,3.116004944E0
1.571792687E1,-1.623392701E0,1.846296310E0,5.070962906E-1,1.795845032E-1,1.432483673E0,3.667869568E-1,-5.116539001E-1,7.162708282E0,9.934696198E0
1.573779382E1,-3.498615384E0,8.113054037E-1,-1.861183167E0,1.130027771E-1,9.134368896E-1,2.211151123E-1,6.591148376E-1,6.367835999E0,1.171657944E1
1.575766076E1,-2.780443847E0,-6.741964817E-2,-1.109562159E0,7.704925537E-2,-2.634162903E-1,3.047332764E-1,1.889732361E0,6.691043854E0,1.008373260E1
1.577752770E1,-7.305966467E-1,-3.100386858E-1,-2.014379501E-1,5.680847168E-2,-8.754119873E-1,2.618598938E-1,-4.212760925E-1,6.826320648E0,9.340934753E0
1.579739465E1,7.576802373E-1,-1.281077862E-1,7.479624748E-1,-2.122116089E-2,-4.303970337E-1,2.077941895E-1,-2.219921112E0,6.085910797E0,6.845577240E0
1.581726159E1,7.564339787E-1,-3.233784437E-1,1.326442480E0,-5.611038208E-2,3.621597290E-1,1.667861938E-1,-2.622741699E0,5.036052704E0,7.070632935E0
1.583712853E1,-1.001513004E-1,-3.953183889E-1,3.954601288E-1,-3.773117065E-2,7.728195190E-1,2.261695862E-1,-3.739852905E-1,4.635627747E0,7.858325958E0
1.585699548E1,-7.809545398E-1,-4.484018087E-1,-5.814385414E-2,2.564620972E-2,6.910629272E-1,2.812995911E-1,1.430641174E0,4.815189362E0,8.896209717E0
1.587686242E1,-1.071727246E0,-6.419233084E-1,-8.339471817E-1,1.074028015E-1,3.991813660E-1,3.180541992E-1,1.922649384E0,4.678718567E0,9.792839050E0
1.589672936E1,-1.234833270E0,-2.982988358E-1,-9.691379070E-1,1.476211548E-1,-1.427726746E-1,3.388252258E-1,1.021835327E0,4.541656494E0,8.984794617E0
1.591659631E1,-1.518696576E0,-6.979238987E-2,-3.254678249E-1,1.143341064E-1,-7.899246216E-1,3.414878845E-1,1.790733337E-1,4.499156952E0,8.455078125E0
1.593646325E1,3.614871949E-1,-3.341441154E-1,5.879306793E-1,1.468200684E-1,-1.051177979E0,5.308380127E-1,-2.758255005E-1,4.326175690E0,7.785900116E0
1.595633019E1,2.015921623E0,-5.058126450E-1,9.628875256E-1,2.163352966E-1,-4.461097717E-1,5.686569214E-1,-4.260635376E-1,4.480602264E0,7.376491547E0
1.597619714E1,1.940021574E0,-1.645143032E-1,7.356357574E-1,2.394981384E-1,6.021080017E-1,4.940834045E-1,-7.259368896E-1,4.945674896E0,7.901416779E0
1.599606408E1,1.156163812E-1,3.391027451E-1,-3.172767162E-1,1.835784912E-1,1.102787018E0,3.926162720E-1,7.698402405E-1,4.673336029E0,8.697490692E0
1.601593102E1,-1.520283103E0,5.057456493E-1,-1.279599428E0,1.430931091E-1,7.834739685E-1,4.314994812E-1,2.971309662E0,4.499156952E0,9.219425201E0
