"timestamp","acceleration_x","acceleration_y","acceleration_z","gyroscope_x","gyroscope_y","gyroscope_z"
1.989746100E-2,-1.114059389E-1,-7.794559002E-3,-5.579972267E-2,-7.413101196E-2,1.141738892E-1,3.357315063E-2
3.479003900E-2,-8.627955119E-2,1.585721970E-3,2.975877126E-2,-4.030354818E-2,7.636006673E-2,-1.178995768E-2
4.971313500E-2,2.180126508E-1,2.185837428E-2,1.555665334E-1,-4.776000977E-2,1.280212402E-2,9.969075521E-4
6.460571300E-2,3.059625228E-1,6.989304225E-2,-5.694548289E-2,-4.989115397E-2,-2.164204915E-2,3.544108073E-2
7.946777300E-2,1.691513062E-1,7.424847285E-2,-1.158014933E-1,-3.000895182E-2,-1.347859701E-2,2.975463867E-2
9.436035100E-2,5.295304457E-2,-1.384870211E-2,4.550774892E-2,-5.308532715E-2,3.445943197E-2,1.697285970E-2
1.092529300E-1,-8.178424835E-2,-6.844385465E-2,1.070721944E-2,-8.433532715E-2,8.381652832E-2,1.484171549E-2
1.241760250E-1,-1.149708033E-1,-3.165705999E-2,-3.157456716E-2,-7.013448079E-2,8.346048991E-2,9.872436523E-3
1.390686030E-1,-5.287281672E-2,2.290781339E-2,2.038701375E-2,-5.628458659E-2,5.434672038E-2,1.306660970E-2
1.539611820E-1,-7.720788320E-2,7.059661547E-2,8.842976888E-2,-6.019083659E-2,3.232828776E-2,1.909891764E-2
1.688842770E-1,-7.291781902E-2,8.519474665E-2,7.806173960E-2,-6.231689453E-2,1.421610514E-2,1.058451335E-2
1.837768550E-1,3.004113833E-2,8.209689458E-2,2.535311381E-2,-6.552124023E-2,1.525878906E-5,-1.846313477E-3
1.986694330E-1,1.194967031E-1,4.485829671E-2,-1.932207743E-2,-7.226053874E-2,4.989624023E-3,5.254109701E-3
2.135620120E-1,6.133933862E-2,3.455495834E-2,-3.975613912E-2,-8.007303874E-2,3.055318197E-2,1.058451335E-2
2.284545900E-1,-8.880809943E-2,2.676447233E-2,-2.172438304E-2,-9.001668294E-2,6.144714355E-2,4.191080729E-3
2.433471680E-1,-1.596027215E-1,1.448694865E-2,-4.152520498E-2,-9.782918294E-2,6.499735514E-2,1.703898112E-3
2.582702640E-1,-7.733710607E-2,-2.929449081E-3,2.164363861E-2,-1.010284424E-1,3.019714355E-2,4.191080729E-3
2.731628420E-1,5.012977123E-2,3.539562225E-2,-2.081235250E-3,-9.960428874E-2,-2.128601074E-2,8.448282878E-3
2.880554200E-1,9.620014826E-2,1.174662113E-1,-2.934392293E-2,-8.575439453E-2,-5.324300130E-2,1.555379232E-2
3.029479980E-1,1.170288722E-1,1.065937678E-1,-1.551310221E-2,-8.575948079E-2,-3.371175130E-2,1.697794596E-2
3.178710940E-1,5.039338271E-2,1.123944918E-2,-6.262652079E-2,-9.569803874E-2,-3.458658854E-4,7.741292318E-3
3.327636720E-1,1.195653280E-2,-3.349224726E-3,-1.021563212E-1,-9.356689453E-2,2.735900879E-2,5.259195964E-3
3.476562500E-1,-2.436157068E-2,1.710398992E-2,-1.363935471E-1,-9.001668294E-2,5.079142253E-2,1.129150391E-2
3.625488280E-1,-1.013688644E-1,2.040902774E-2,-1.262337367E-1,-8.824157715E-2,5.150349935E-2,1.874796549E-2
3.774414060E-1,-1.202578147E-1,-1.884452502E-2,-1.547396978E-1,-8.398437500E-2,2.806599935E-2,1.874287923E-2
3.923645020E-1,-2.483352025E-2,-8.601260185E-2,-1.436131795E-1,-7.901000977E-2,-6.729125977E-3,2.123006185E-2
4.072570800E-1,9.510735671E-2,-1.066176891E-1,-1.935011546E-1,-6.694030762E-2,-2.448527018E-2,3.330993652E-2
4.221496580E-1,1.261033217E-1,-7.621606191E-2,-1.497901281E-1,-5.095926921E-2,-1.738484701E-2,4.182434082E-2
4.370422360E-1,1.862776279E-2,-3.009780248E-2,-1.741015116E-1,-2.964782715E-2,-2.115885417E-3,3.863016764E-2
4.519348140E-1,-8.708222707E-2,-2.213231723E-2,-1.604197820E-1,-1.687113444E-2,2.558390299E-2,3.081766764E-2
4.668579100E-1,-1.545453866E-1,-4.911526044E-2,-1.109838486E-1,-1.154581706E-2,3.872172038E-2,2.584838867E-2
4.817504880E-1,-1.900128126E-1,-5.518937111E-2,-6.139691671E-2,-5.859375000E-3,2.238464355E-2,1.661682129E-2
4.966430660E-1,-7.847793897E-2,-5.909530322E-2,-3.003470103E-2,7.629394531E-3,-7.080078125E-3,9.516398112E-3
5.115356440E-1,3.700999419E-2,-1.687574387E-2,-5.099264781E-2,2.325439453E-2,-2.839152018E-2,1.022847493E-2
5.264587400E-1,-3.393260638E-2,3.723462423E-2,-3.760655721E-2,2.893575033E-2,-9.572347005E-3,1.165262858E-2
5.413513180E-1,-1.808917920E-1,-8.441289266E-3,-3.711032867E-2,2.467854818E-2,2.593485514E-2,4.191080729E-3
5.562438960E-1,-1.866827806E-1,-5.022859573E-2,4.664357503E-2,1.757303874E-2,4.084777832E-2,-7.888793945E-3
5.711364750E-1,-6.964317958E-2,6.160306931E-2,-1.513799032E-3,2.254740397E-2,1.493326823E-2,-5.752563477E-3
5.860595700E-1,3.260191282E-2,9.753131866E-2,-1.054827372E-2,3.284200033E-2,1.525878906E-5,3.122965495E-3
6.009521480E-1,7.706785202E-2,1.322380702E-2,9.094778697E-2,2.645365397E-2,-6.022135417E-3,9.918212891E-4
6.158447260E-1,1.019239426E-3,-8.715629578E-3,7.890860240E-2,9.053548177E-3,3.565470378E-3,-9.307861328E-3
6.307373050E-1,-1.753071944E-2,5.862236023E-3,-8.884112040E-3,6.215413411E-3,2.344767253E-2,-1.072184245E-2
6.456298830E-1,1.647226016E-2,1.872022947E-2,5.922444661E-2,9.404500326E-3,3.232828776E-2,2.848307292E-4
6.605529780E-1,-1.340313752E-2,2.290113767E-2,5.031776428E-2,8.799235026E-4,2.913411458E-2,7.736206055E-3
6.754455570E-1,1.266165574E-2,-4.250605901E-2,7.800738017E-3,1.678466797E-4,2.842203776E-2,4.898071289E-3
6.903381350E-1,9.868013859E-2,9.285608927E-4,4.487864176E-2,-4.796346029E-3,1.067097982E-2,7.385253906E-3
7.052307130E-1,1.276411215E-1,1.630202929E-2,-4.599889119E-3,-7.990519206E-3,3.209431966E-3,1.271565755E-2
7.201538080E-1,9.731451670E-2,1.160105069E-2,-5.843353271E-2,1.780192057E-4,4.984537760E-3,1.448567708E-2
7.350463870E-1,9.081089497E-2,1.369388898E-2,4.230848948E-2,-5.340576172E-4,1.279703776E-2,1.590983073E-2
7.499389650E-1,3.567767143E-2,1.888593038E-2,3.214422862E-2,-5.152384440E-3,1.599629720E-2,1.946004232E-2
7.648315430E-1,-9.422620138E-3,-6.306330363E-3,2.385203044E-2,1.597086589E-3,1.741536458E-2,2.052307129E-2
7.797546390E-1,-4.537717501E-2,4.888844490E-2,7.386016846E-2,5.147298177E-3,-2.471923828E-3,1.945495605E-2
7.946472170E-1,-1.750822862E-2,6.829229991E-2,2.772967021E-3,6.927490234E-3,-1.738484701E-2,2.336120605E-2
8.095397950E-1,9.115417798E-3,3.026008606E-2,2.750587463E-2,1.012166341E-2,-2.271525065E-2,2.336120605E-2
8.244323730E-1,1.038547357E-2,8.925596873E-3,3.015454610E-2,4.435221354E-3,-2.909851074E-2,1.839192708E-2
8.393249510E-1,6.482597192E-2,-1.394097010E-2,-7.593250275E-2,3.728230794E-3,-1.454162598E-2,1.626586914E-2
8.542175290E-1,2.806556225E-2,-1.494487127E-2,-9.196821849E-2,7.629394531E-3,1.031494141E-2,1.412963867E-2
8.691406250E-1,-5.419007937E-2,-1.455116272E-2,-1.422478358E-1,1.953125000E-3,2.913411458E-2,9.872436523E-3
8.840332030E-1,-1.983342171E-1,1.873493195E-2,-1.312545141E-1,-2.665201823E-3,3.552246094E-2,1.412963867E-2
8.989257810E-1,-2.058581909E-1,-9.705464045E-3,-1.710637410E-2,-1.597086589E-3,1.564025879E-2,1.803588867E-2
9.138183590E-1,-9.764703115E-2,-5.326485634E-2,1.956208547E-2,-1.958211263E-3,-2.732849121E-2,1.697285970E-2
9.287414550E-1,8.393875758E-2,-6.400688489E-2,6.144777934E-2,7.273356120E-3,-5.928548177E-2,1.377360026E-2
9.436340330E-1,1.757247845E-1,2.620935440E-3,7.338078817E-2,1.828511556E-2,-5.999247233E-2,1.341756185E-2
9.585266110E-1,1.645355225E-1,2.300588290E-2,-2.634525299E-2,2.325439453E-2,-1.774088542E-2,7.385253906E-3
9.734191890E-1,7.223733266E-2,-1.823584239E-3,-3.754901886E-2,1.686604818E-2,3.978983561E-2,2.848307292E-4
9.883422850E-1,-6.028970083E-2,-2.199093501E-3,-2.602704366E-2,5.340576172E-4,8.026123047E-2,-2.558390299E-3
1.003234863E0,-1.181985935E-1,-2.539451917E-2,-1.304944356E-2,-3.733317057E-3,8.417256673E-2,-3.626505534E-3
1.018127441E0,-4.447805882E-2,3.634723028E-2,1.564439138E-2,-1.831054688E-4,4.688517253E-2,-1.846313477E-3
1.033020019E0,5.190173785E-2,6.698377927E-2,7.605425517E-2,5.147298177E-3,-5.310058594E-3,5.254109701E-3
1.047912598E0,1.420732339E-1,9.448019663E-2,5.883407593E-2,9.404500326E-3,-3.193664551E-2,9.872436523E-3
1.062805176E0,1.540384690E-1,1.023129622E-1,7.333914439E-2,7.990519206E-3,-2.342224121E-2,7.736206055E-3
1.077728271E0,8.359495799E-2,6.753834089E-2,3.859837850E-2,-8.900960286E-4,8.178710938E-3,7.736206055E-3
1.092620850E0,1.067399979E-3,3.292640050E-2,5.093352000E-2,-7.283528646E-3,4.440307617E-2,7.736206055E-3
1.107513428E0,-1.986050606E-2,1.714483897E-2,4.460048676E-2,-1.367696126E-2,5.150858561E-2,3.479003906E-3
1.122406006E0,5.262116591E-2,4.695248604E-2,2.294095357E-2,-1.261393229E-2,3.161621094E-2,6.322224935E-3
1.137329101E0,1.363120079E-1,6.116517385E-2,5.521265666E-2,-1.118977865E-2,1.315307617E-2,1.590474447E-2
1.152221680E0,1.194382509E-1,4.730494817E-2,4.905637105E-2,-1.296488444E-2,7.832845052E-3,2.159118652E-2
1.167114258E0,3.756324450E-3,4.578487078E-2,2.523803711E-2,-1.722208659E-2,2.415974935E-2,2.016703288E-2
1.182006836E0,-1.351435979E-2,1.005482674E-2,-7.541338603E-3,-1.899719238E-2,3.659057617E-2,1.555379232E-2
1.196929932E0,3.633618355E-2,1.069053014E-2,-6.880060832E-2,-1.935831706E-2,2.735900879E-2,1.590983073E-2
1.211822510E0,9.214405219E-2,1.838739713E-2,-1.170021693E-1,-1.616414388E-2,1.741536458E-2,2.052307129E-2
1.226715088E0,1.091707548E-1,-3.055516879E-2,-8.056672414E-2,-2.255249023E-2,1.847839355E-2,2.194722493E-2
1.241607666E0,4.989063740E-2,-7.906635602E-2,-7.061131795E-2,-3.497823079E-2,3.375244141E-2,1.697285970E-2
1.256500244E0,4.506071409E-2,-5.321232478E-2,-1.757879257E-1,-3.852335612E-2,5.008443197E-2,1.377360026E-2
1.271423340E0,4.731309414E-2,-2.171309789E-2,-1.899801890E-1,-3.427124023E-2,6.002298991E-2,2.301025391E-2
1.286315918E0,-9.266018867E-3,-5.347816149E-2,-1.464316050E-1,-4.456583659E-2,6.996663411E-2,2.904764811E-2
1.301208496E0,-5.870803197E-2,-1.594075362E-1,-9.601751963E-2,-5.948384603E-2,7.458496094E-2,2.975463867E-2
1.316101074E0,-7.077260812E-2,-1.384313107E-1,-1.013170878E-1,-6.089782715E-2,7.316589355E-2,3.685506185E-2
1.330993652E0,-6.488911311E-2,-4.593054454E-2,-1.061709722E-1,-5.628967285E-2,8.417256673E-2,5.958557129E-2
1.345916748E0,-1.328430573E-1,-4.001720746E-2,-9.100468953E-2,-5.805969238E-2,9.979248047E-2,7.556152344E-2
1.360809326E0,-1.485964855E-1,-3.268329302E-2,-7.281970978E-2,-6.480407715E-2,1.122182210E-1,7.840474447E-2
1.375701904E0,-1.034791867E-1,-2.049811681E-2,-6.346384684E-3,-6.516011556E-2,1.253611247E-1,7.982381185E-2
1.390594482E0,-1.500645081E-1,2.575016022E-2,-4.637400309E-3,-5.948384603E-2,1.335296631E-1,8.479817708E-2
1.405517578E0,-1.311519543E-1,6.263899803E-2,-4.510529836E-2,-5.202229818E-2,1.420491536E-1,7.982381185E-2
1.420410156E0,-1.096899509E-1,4.670858383E-2,-2.751986186E-2,-4.598999023E-2,1.452484131E-1,7.307434082E-2
1.435302734E0,-1.009480953E-1,4.402542114E-2,-9.227116903E-3,-4.811604818E-2,1.427663167E-1,6.703694661E-2
1.450195312E0,-4.065831502E-2,3.174122175E-2,-1.104602814E-1,-3.782145182E-2,1.370798747E-1,5.958048503E-2
1.465087891E0,3.232518832E-2,-7.206439972E-3,-1.690120697E-1,-2.326456706E-2,1.363677979E-1,6.313578288E-2
1.480010986E0,-5.102594694E-2,-6.757275263E-2,-2.673645020E-1,-2.539062500E-2,1.537679036E-1,6.916809082E-2
1.494903564E0,-4.211974144E-2,-1.362891197E-1,-4.360303879E-1,-1.722717285E-2,1.857248942E-1,7.946777344E-2
1.509796142E0,-1.096959114E-1,-1.776914597E-1,-6.117871602E-1,-3.372192383E-3,2.272745768E-1,1.100107829E-1
1.524688721E0,-1.735726992E-1,-2.600038052E-1,-7.216583888E-1,-5.340576172E-4,2.830200195E-1,1.579437256E-1
1.539611816E0,-4.102027416E-1,-3.330777486E-1,-7.101945877E-1,1.366678874E-2,3.693084717E-1,2.133382161E-1
1.554504394E0,-7.349305948E-1,-3.169959386E-1,-6.167456309E-1,3.959147135E-2,4.445851644E-1,2.559458415E-1
1.569396973E0,-8.708321253E-1,-2.704056104E-1,-2.642796834E-1,8.007303874E-2,4.570109049E-1,2.595011393E-1
1.584289551E0,-6.307605902E-1,-2.424825827E-1,-4.708353678E-2,1.400807699E-1,3.245646159E-1,2.431640625E-1
1.599182129E0,-3.146370252E-2,-2.025473913E-1,8.015124003E-2,1.997324626E-1,1.342366536E-1,2.360585531E-1
1.614105225E0,4.148383935E-1,-1.130460103E-1,2.592690786E-2,2.427012126E-1,-1.454671224E-2,2.477773031E-1
1.628997803E0,4.463993708E-1,-1.372349262E-1,9.249528249E-2,2.604522705E-1,-1.880391439E-2,2.477773031E-1
1.643890381E0,2.347885768E-1,-2.656034629E-1,8.834934235E-2,2.615203857E-1,5.753580729E-2,2.207946777E-1
1.658782959E0,-3.325112661E-2,-1.482703686E-1,3.463789622E-1,2.753651937E-1,1.239420573E-1,2.094319661E-1
1.673675537E0,-2.087111473E-1,2.228539785E-1,3.705536524E-1,2.949015299E-1,1.427612305E-1,2.385508219E-1
1.688598633E0,-2.193100452E-1,1.646312873E-1,2.926600774E-1,2.846018473E-1,1.558990479E-1,2.595011393E-1
1.703491211E0,-3.809653918E-1,-9.761166573E-2,4.341322581E-1,2.554829915E-1,1.839497884E-1,2.239888509E-1
1.718383789E0,-2.626253764E-1,-2.388480504E-1,2.975823085E-1,2.416330973E-1,1.061859131E-1,1.593627930E-1
1.733276367E0,-1.643419266E-2,-2.140916983E-1,2.196725210E-1,2.675577799E-1,3.800964355E-2,1.515502930E-1
1.748199463E0,4.574871063E-2,-1.241781712E-1,3.386430740E-1,2.856597900E-1,-1.809692383E-2,1.639811198E-1
1.763092041E0,4.004112879E-2,-9.358549118E-2,2.021077474E-1,2.846018473E-1,-7.526143392E-2,1.519063314E-1
1.777984619E0,-8.497412999E-2,-2.873551051E-1,3.028078079E-1,2.995147705E-1,-8.946736654E-2,1.131998698E-1
1.792877197E0,5.191342036E-2,-5.038391749E-1,5.517918269E-1,3.197479248E-1,-2.190755208E-1,6.952412923E-2
1.807769775E0,4.251715342E-1,-4.324095249E-1,6.990165710E-1,3.463846842E-1,-3.344777425E-1,5.106099447E-2
1.822692871E0,7.682692210E-1,-9.008065859E-2,7.596101761E-1,4.078165690E-1,-4.484659831E-1,5.461120605E-2
1.837585449E0,8.514589469E-1,4.749271075E-1,9.672892888E-1,4.355112712E-1,-5.141550700E-1,7.413736979E-2
1.852478027E0,6.146126191E-1,8.157770634E-1,1.169958115E0,3.687591553E-1,-4.949798584E-1,8.834330241E-2
1.867370605E0,3.487189213E-1,7.031202316E-1,1.188299179E0,2.537078857E-1,-4.250284831E-1,6.455485026E-2
1.882293701E0,3.352877696E-1,5.252147516E-1,1.007604599E0,1.471811930E-1,-3.770904541E-1,1.626078288E-2
1.897186279E0,4.787113667E-1,5.788671176E-1,6.609086990E-1,7.651774089E-2,-3.263142904E-1,9.872436523E-3
1.912078857E0,3.772378763E-1,7.546794415E-1,3.264144262E-1,2.609761556E-2,-2.375386556E-1,3.507995605E-2
1.926971435E0,1.026394367E-1,7.431718508E-1,4.924691518E-1,-3.747049967E-2,-1.871134440E-1,3.259785970E-2
1.941864014E0,9.114933014E-2,6.667968432E-1,2.781661352E-1,-9.179687500E-2,-2.368265788E-1,-8.590698242E-3
1.956787109E0,4.157177210E-1,4.897437890E-1,-1.672776540E-2,-6.942240397E-2,-3.401590983E-1,-4.659016927E-2
1.971679687E0,7.237077554E-1,4.290642738E-1,-2.714379628E-2,-3.817240397E-2,-4.250233968E-1,-6.079610189E-2
1.986572266E0,7.269272010E-1,5.494502385E-1,-5.205059052E-2,-2.752685547E-2,-4.037170410E-1,-4.836527507E-2
2.001464844E0,4.438012838E-1,6.452914079E-1,7.467714945E-2,-2.148437500E-2,-3.060709635E-1,-2.492777507E-2
2.016357422E0,2.642846505E-1,6.800382137E-1,1.288433075E-1,-5.166625977E-2,-2.187194824E-1,-2.202351888E-3
2.031280517E0,2.684124708E-1,7.098213037E-1,1.180721919E-1,-1.088409424E-1,-1.352742513E-1,5.142211914E-2
2.046173096E0,2.825442950E-1,5.850222905E-1,-7.417742411E-2,-1.713358561E-1,-3.869120280E-2,1.092936198E-1
2.061065674E0,1.206957499E-1,3.554242452E-1,-6.520048777E-2,-2.338307699E-1,7.742818197E-2,1.337992350E-1
2.075958252E0,-1.206602653E-1,3.155454000E-1,-3.868420919E-3,-2.860260010E-1,1.779174805E-1,1.362813314E-1
2.090881348E0,-7.395561536E-2,3.977141380E-1,-7.004960378E-2,-3.176269531E-1,2.357940674E-1,1.604309082E-1
2.105773926E0,3.016007344E-1,3.146421909E-1,-9.004720052E-2,-3.463897705E-1,2.670440674E-1,2.247009277E-1
2.120666504E0,5.581577222E-1,1.726151307E-1,-2.835464478E-2,-4.127960205E-1,3.600718180E-1,2.946523031E-1
2.135559082E0,6.807353894E-1,1.578295231E-1,-4.026365280E-1,-4.752858480E-1,5.209350586E-1,3.376159668E-1
2.150451660E0,7.041153908E-1,2.458031972E-1,-6.816272736E-1,-5.051167806E-1,7.375335693E-1,3.763173421E-1
2.165374756E0,5.384150743E-1,3.464291890E-1,-7.983805339E-1,-5.548248291E-1,9.530741374E-1,4.242553711E-1
2.180267334E0,2.068219185E-1,3.713986079E-1,-7.564315796E-1,-6.230061849E-1,1.157608032E0,4.668731689E-1
2.195159912E0,4.908561707E-3,4.540112813E-1,-8.535451889E-1,-6.823069255E-1,1.292541504E0,4.938557943E-1
2.210052490E0,2.797394594E-1,4.791478316E-1,-1.011887868E0,-7.369893392E-1,1.388051351E0,5.432128906E-1
2.224975586E0,6.117674510E-1,2.818063100E-1,-1.047350566E0,-7.966461182E-1,1.471150716E0,6.223907471E-1
2.239868164E0,6.347947915E-1,1.364804904E-1,-8.282140096E-1,-8.470662435E-1,1.571990967E0,7.054901123E-1
2.254760742E0,3.779510657E-1,1.076591015E-1,-1.016178131E0,-8.868408203E-1,1.684906006E0,7.615966797E-1
2.269653320E0,-1.990165710E-1,4.317077001E-2,-9.763545990E-1,-8.928731283E-1,1.774032593E0,8.017120361E-1
2.284545898E0,-7.234961987E-1,1.618589560E-1,-6.672474543E-1,-8.928731283E-1,1.731068929E0,8.560485840E-1
2.299468994E0,-8.627885977E-1,3.579926491E-1,-3.848841985E-1,-8.818664551E-1,1.569503784E0,9.288380941E-1
2.314361572E0,-6.363314788E-1,4.743526777E-1,-3.706995646E-2,-8.545227051E-1,1.335500081E0,1.001276652E0
2.329254150E0,-1.796494325E-1,4.759027163E-1,3.939285278E-1,-8.431599935E-1,1.079126994E0,1.059509277E0
2.344146728E0,2.084497611E-1,6.786324978E-1,5.674635569E-1,-8.541717529E-1,9.065551758E-1,1.094309489E0
2.359069824E0,3.163041274E-1,8.296745618E-1,5.879224141E-1,-8.854166667E-1,9.061991374E-1,1.107091268E0
2.373962402E0,-2.243860563E-2,9.013781548E-1,6.503280004E-1,-9.401041667E-1,1.027282715E0,1.082234701E0
2.388854980E0,-3.628358841E-1,7.419281006E-1,7.728020350E-1,-1.021413167E0,1.127421061E0,1.028615316E0
2.403747558E0,-2.871254285E-1,3.139899969E-1,9.764687220E-1,-1.109120687E0,1.183171590E0,9.629262288E-1
2.418640137E0,-1.945581436E-1,-1.234245300E-2,1.140288671E0,-1.162027995E0,1.146591187E0,8.990122477E-1
2.433563232E0,1.205801964E-1,-2.232135932E-1,9.688736598E-1,-1.185465495E0,9.910634359E-1,8.517862956E-1
2.448455810E0,4.935251872E-1,-5.005171696E-1,7.384211222E-1,-1.234466553E0,8.596852620E-1,8.734486898E-1
2.463348389E0,5.429662069E-1,-4.797660112E-1,7.292350133E-1,-1.297673543E0,7.801462809E-1,9.380747477E-1
2.478240967E0,4.655674299E-1,-4.857484897E-1,5.896511078E-1,-1.308680216E0,7.084197998E-1,9.828135173E-1
2.493133545E0,4.599175453E-1,-7.316136360E-1,6.014089584E-1,-1.299804688E0,6.271006266E-1,9.991455078E-1
2.508056641E0,4.524038633E-1,-8.754668236E-1,4.888000488E-1,-1.300511678E0,5.759684245E-1,1.027557373E0
2.522949219E0,3.890922864E-1,-9.398066203E-1,1.809450785E-1,-1.270334880E0,5.454305013E-1,1.073710124E0
2.537841797E0,3.409031232E-1,-8.973905245E-1,1.904153824E-1,-1.234110514E0,4.903920492E-1,1.117752075E0
2.552734375E0,6.238346100E-1,-6.972569625E-1,1.116628647E-1,-1.186879476E0,4.190165202E-1,1.171717326E0
2.567657471E0,7.268781662E-1,-5.949391127E-1,3.466320038E-1,-1.133621216E0,3.487141927E-1,1.227111816E0
2.582550049E0,6.890292168E-1,-5.133538842E-1,3.703772227E-1,-1.159896851E0,2.950948079E-1,1.250198364E0
2.597442627E0,6.820362409E-1,-3.999664386E-1,3.381061554E-2,-1.185109456E0,3.408966064E-1,1.305587769E0
2.612335205E0,2.246446609E-1,-3.500376344E-1,-6.200345357E-1,-1.208185832E0,4.715728760E-1,1.379801432E0
2.627227783E0,-1.598537763E-1,-2.538760702E-1,-7.182588577E-1,-1.263585409E0,6.484069824E-1,1.396840413E0
2.642150879E0,-4.548918406E-1,-2.648436030E-1,-5.522721608E-1,-1.220977783E0,7.283020020E-1,1.398976644E0
2.657043457E0,-3.908384641E-1,-2.157044808E-1,5.790583293E-2,-1.196116130E0,6.086374919E-1,1.360270182E0
2.671936035E0,1.566928228E-1,-1.897711356E-1,2.463471095E-1,-1.220260620E0,3.867034912E-1,1.360982259E0
2.686828613E0,5.862685839E-1,1.642013788E-1,-6.860637665E-2,-1.184046427E0,3.327331543E-1,1.455790202E0
2.701751709E0,1.781544685E-1,1.717212399E-1,-1.269442240E-1,-1.189722697E0,5.646057129E-1,1.461115519E0
2.716644287E0,-5.971581141E-1,-1.762678226E-1,-3.331772486E-1,-1.225234985E0,8.010965983E-1,1.302032471E0
2.731536865E0,-9.420464834E-1,-6.093351245E-1,-1.014048894E0,-1.185114543E0,9.353129069E-1,1.112772624E0
2.746429443E0,-7.692993482E-1,-7.694597046E-1,-1.117241065E0,-1.077875773E0,8.923543294E-1,1.017608643E0
2.761322021E0,-8.778502146E-1,-9.598293900E-2,-1.645594279E0,-9.141794840E-1,7.485402425E-1,1.042109172E0
2.776245117E0,-1.227972349E0,3.883902331E-1,-1.602035205E0,-7.682342529E-1,7.023824056E-1,1.046727498E0
2.791137695E0,-1.439677556E0,1.389545699E-1,-1.321856499E0,-7.302398682E-1,5.905253092E-1,9.157002767E-1
2.806030273E0,-1.265309970E0,-4.002216260E-1,-1.390029748E0,-6.436004639E-1,2.812449137E-1,7.736663818E-1
2.820922851E0,-5.189202627E-1,-4.475157758E-1,-1.420298894E0,-4.866485596E-1,-4.046122233E-2,7.328287760E-1
2.835845947E0,4.715668360E-1,-3.998453816E-1,-1.749528885E0,-3.492329915E-1,-1.711324056E-1,8.024291992E-1
2.850738525E0,8.906520208E-1,-2.548594276E-1,-1.511383851E0,-1.947733561E-1,-6.852213542E-2,8.780619303E-1
2.865631103E0,6.222629547E-1,7.679164807E-1,-1.672030449E0,2.752176921E-2,1.725870768E-1,9.029184977E-1
2.880523682E0,1.363876661E-1,1.523219864E0,-1.748705228E0,2.334645589E-1,5.777435303E-1,8.649241130E-1
2.895416260E0,-7.496627172E-2,1.388455709E0,-1.202838580E0,2.693328857E-1,9.409993490E-1,7.459716797E-1
2.910339355E0,1.088480949E-1,8.620721300E-1,-1.137600899E0,2.192637126E-1,1.174290975E0,6.181386312E-1
2.925231933E0,2.187089920E-1,5.548582872E-1,-1.536100070E0,2.622273763E-1,1.307098389E0,5.694885254E-1
2.940124512E0,4.118541082E-1,3.614037832E-1,-1.254134019E0,3.193969727E-1,1.440251668E0,5.712687174E-1
2.955017090E0,1.472870509E-2,1.596347094E-1,-1.105988344E0,2.643636068E-1,1.543940226E0,5.978953044E-1
2.969909668E0,1.797374090E-2,1.113457680E-1,-1.576689879E0,2.767893473E-1,1.725036621E0,6.614532471E-1
2.984832764E0,8.585715294E-1,4.601759513E-1,-8.959287008E-1,3.925476074E-1,1.794987996E0,7.608795166E-1
2.999725342E0,9.890837669E-1,1.234140356E0,-5.000667572E-1,4.262797038E-1,1.710825602E0,7.963918050E-1
3.014617920E0,4.173725446E-1,1.544751167E0,2.596383095E-1,3.176218669E-1,1.877721151E0,6.703338623E-1
3.029510498E0,-1.284144560E0,1.232963006E0,1.301518281E0,8.255513509E-2,2.044260661E0,4.963429769E-1
3.044433594E0,-3.249685129E0,3.647281329E-1,1.793100039E0,-1.816304525E-1,2.204050700E0,2.499084473E-1
3.059326172E0,-4.912701607E0,-3.107613325E-1,8.950502078E-1,-2.576141357E-1,2.170313517E0,1.200358073E-2
3.074218750E0,-5.502936681E0,-7.666890224E-1,2.956743240E-1,-2.128804525E-1,1.870264689E0,-1.318105062E-1
3.089111328E0,-3.887945175E0,-5.719063679E-1,-1.491959890E-1,-2.096811930E-1,1.217615763E0,-1.492106120E-1
3.104003906E0,-9.380849202E-1,-2.005027930E-1,4.408941269E-1,-1.720479329E-1,3.874155680E-1,-8.595784505E-3
3.118927002E0,1.296203295E0,-8.326828480E-2,6.161845525E-1,-1.780751546E-1,-2.215627035E-1,1.217244466E-1
3.133819580E0,2.128869057E0,-1.075872580E-1,4.357611338E-1,-8.256022135E-2,-3.795776367E-1,1.298878988E-1
3.148712158E0,1.963150819E0,1.617259979E-1,2.976611455E-1,2.112833659E-2,-2.105509440E-1,7.769266764E-2
3.163604736E0,1.041296641E0,3.832614422E-1,-1.545163790E-1,9.995524089E-2,9.660339355E-2,6.419881185E-2
3.178527832E0,-1.935501099E-1,3.271986246E-1,-5.057853063E-1,1.461130778E-1,3.533274333E-1,3.827921549E-2
3.193420410E0,-1.163582484E0,1.317804654E-1,-1.898282369E-1,2.029266357E-1,3.565266927E-1,-1.285298665E-2
3.208312988E0,-1.165768941E0,1.121465762E-1,1.166755358E-1,2.231750488E-1,1.740112305E-1,-3.806559245E-2
3.223205566E0,-7.809925079E-1,-5.125800769E-3,1.657161713E-1,2.682647705E-1,-3.477986654E-2,-7.171630859E-3
3.238098144E0,-4.719711939E-1,-2.445489168E-1,1.020956039E-2,3.030649821E-1,-1.690063477E-1,-7.171630859E-3
3.253021240E0,-2.975595792E-1,-2.732996146E-1,-2.996810277E-1,3.378601074E-1,-2.542317708E-1,-2.848307292E-2
3.267913818E0,-1.472918193E-1,-1.740946770E-1,-3.254683812E-1,3.549041748E-1,-3.202768962E-1,-4.445393880E-2
3.282806396E0,1.472357114E-1,-2.001494567E-1,4.898564021E-2,3.233032227E-1,-3.607533773E-1,-2.812703451E-2
3.297698975E0,4.863893191E-1,-8.592315515E-2,3.920857112E-2,2.576141357E-1,-3.650156657E-1,1.164245605E-2
3.312622070E0,4.929594994E-1,8.282820384E-2,-2.421345711E-1,2.345377604E-1,-3.110453288E-1,2.939860026E-2
3.327514648E0,1.602209409E-1,2.406092882E-1,-1.966945330E-1,1.894327799E-1,-1.590627035E-1,1.484171549E-2
3.342407226E0,-1.925152143E-1,2.211101850E-1,8.595482508E-2,1.283620199E-1,-4.294840495E-2,-1.250203451E-2
3.357299805E0,-2.861959140E-1,1.742664576E-1,-1.404711405E-1,6.551106771E-2,6.759643555E-3,-2.776590983E-2
3.372192383E0,-2.164394061E-1,1.299409072E-1,-2.384545008E-1,5.841064453E-2,1.066589355E-2,-7.171630859E-3
3.387115478E0,-2.161952655E-1,4.666717847E-2,-2.946027120E-1,4.242960612E-2,-3.834025065E-2,3.122965495E-3
3.402008057E0,-1.251654625E-1,1.514442762E-2,-6.667750676E-1,3.817240397E-2,-7.064310710E-2,-7.781982422E-4
3.416900635E0,-3.150129318E-2,4.970220725E-2,-3.060690562E-1,3.710428874E-2,-6.993611654E-2,1.342264811E-2
3.431823730E0,-8.429209391E-2,9.861532847E-2,-1.019303004E-2,-8.702596029E-3,-9.159851074E-2,2.159118652E-2
3.446716308E0,-1.189881961E-1,9.421904882E-3,1.412857374E-1,-3.036499023E-2,-8.698018392E-2,2.336120605E-2
3.461608887E0,-1.286940575E-1,3.358364105E-3,8.976189295E-2,-3.959147135E-2,-7.064819336E-2,2.265421549E-2
3.476501465E0,-1.697719892E-1,3.822986285E-2,5.626074473E-2,-3.746541341E-2,-4.507954915E-2,3.721110026E-2
3.491394043E0,-2.549012502E-1,3.778016567E-2,-1.143089930E-1,-3.817240397E-2,-1.525370280E-2,4.822285970E-2
3.506286621E0,-3.879769643E-1,-3.416001797E-2,-2.704544067E-1,-4.669698079E-2,-8.153279622E-3,5.567423503E-2
3.521209717E0,-4.341386159E-1,-7.835261027E-2,-1.933212280E-1,-7.013448079E-2,-3.016662598E-2,6.987508138E-2
3.536102295E0,-3.990767797E-1,-5.200624466E-3,-1.647456487E-2,-7.901000977E-2,-6.674194336E-2,9.402465820E-2
3.550994873E0,-2.518741290E-1,-8.673667908E-3,4.607184728E-2,-6.658426921E-2,-1.004791260E-1,1.188863118E-1
3.565887451E0,-5.658849080E-2,-2.654727300E-2,-6.035184860E-2,-4.847208659E-2,-1.224924723E-1,1.323750814E-1
3.580780029E0,1.030222575E-1,-1.171771685E-1,2.547041575E-2,-2.894592285E-2,-1.249745687E-1,1.412556966E-1
3.595703125E0,2.231136958E-1,-9.879155954E-2,8.701070150E-2,-2.645874023E-2,-1.228383382E-1,1.494140625E-1
3.610595703E0,1.464150747E-1,-6.719239553E-2,2.364921570E-2,-2.503458659E-2,-8.769226074E-2,1.526184082E-1
3.625488281E0,1.075318654E-1,-5.417923133E-2,-2.623658180E-1,-2.255249023E-2,-2.945963542E-2,1.448008219E-1
3.640380859E0,2.492284775E-2,-3.780484200E-2,-9.730863571E-2,-2.042134603E-2,3.233337402E-2,1.476440430E-1
3.655303955E0,-1.884706815E-1,-1.571798325E-2,3.672917684E-3,-4.030354818E-2,4.617309570E-2,1.295369466E-1
3.670196533E0,-2.508864403E-1,-8.669885000E-2,-2.350282669E-2,-4.207865397E-2,8.895874023E-3,1.007741292E-1
3.685089111E0,-3.383413951E-2,-4.193190734E-2,-3.287412326E-1,-2.397155762E-2,-7.242329915E-2,8.727518717E-2
3.699981689E0,1.281355222E-1,-5.857833227E-2,-9.113311768E-2,-4.801432292E-3,-1.271057129E-1,8.905537923E-2
3.714874267E0,1.951557795E-1,5.382100741E-3,-1.490333875E-1,-8.702596029E-3,-1.615498861E-1,8.230590820E-2
3.729797363E0,2.247915268E-1,-2.638530731E-2,-1.469230652E-2,-1.831054688E-4,-1.384684245E-1,7.023620605E-2
3.744689941E0,2.150106430E-1,-9.616080920E-2,1.378231049E-1,-1.118469238E-2,-1.097056071E-1,6.135559082E-2
3.759582519E0,7.581679026E-2,-7.560698191E-2,-5.725288391E-2,-1.580301921E-2,-6.851704915E-2,5.283610026E-2
3.774475098E0,5.628585815E-2,2.712758382E-2,-2.038780848E-1,-1.438903809E-2,-1.028442383E-2,4.218037923E-2
3.789398193E0,4.829756419E-2,-3.685394923E-3,1.651191711E-2,-2.184041341E-2,2.167256673E-2,4.076131185E-2
3.804290771E0,4.022614161E-2,-5.098748207E-2,7.712046305E-4,-4.740905762E-2,3.481038411E-2,2.407328288E-2
3.819183350E0,6.966416041E-2,-1.037153403E-1,-6.534306208E-2,-3.994750977E-2,3.268432617E-2,9.516398112E-3
3.834075928E0,1.042842865E-1,-3.084421158E-3,-2.030633291E-1,-3.391520182E-2,5.079650879E-2,1.804097493E-2
3.848968506E0,-4.546944300E-2,1.644698779E-2,1.164746284E-1,-3.214009603E-2,8.275349935E-2,2.691650391E-2
3.863891601E0,-2.225252787E-1,1.635313034E-3,1.053330104E-1,-4.598490397E-2,8.878580729E-2,1.164754232E-2
3.878784180E0,-2.176135381E-1,-1.622045040E-2,-2.538172404E-2,-2.787780762E-2,9.339904785E-2,9.918212891E-4
3.893676758E0,-3.915023804E-2,2.598754565E-2,-7.520516713E-3,-1.154581706E-2,7.813517253E-2,5.966186523E-3
3.908569336E0,3.901116053E-2,-2.375356356E-2,6.168254217E-2,-1.118977865E-2,5.292256673E-2,1.448567708E-2
3.923492432E0,-2.732865016E-2,-6.219116847E-2,1.706838608E-2,-5.859375000E-3,4.937235514E-2,5.610148112E-3
3.938385010E0,-4.699039459E-2,-3.510793050E-3,-1.760055224E-1,7.629394531E-3,5.540974935E-2,2.766927083E-3
3.953277588E0,-9.264071782E-2,2.847043673E-2,-2.496560415E-2,8.697509766E-3,8.132934570E-2,1.022338867E-2
3.968170166E0,-1.311445236E-1,-3.080368042E-3,3.203360240E-2,-3.733317057E-3,6.712849935E-2,9.872436523E-3
3.983062744E0,-8.111826579E-2,-2.615141869E-2,-6.669425964E-2,-1.831054688E-4,5.576578776E-2,1.352945964E-3
3.997985840E0,-3.171602885E-3,-3.383715947E-3,-3.849649429E-2,7.634480794E-3,5.115254720E-2,4.898071289E-3
4.012878418E0,-1.181284587E-3,4.083569845E-2,-7.550636927E-2,4.084269206E-3,5.291748047E-2,1.058451335E-2
4.027770996E0,-1.963869731E-2,4.155389468E-2,-6.730302175E-2,1.224772135E-2,5.611673991E-2,4.542032878E-3
4.042663574E0,1.527833939E-2,5.191723506E-3,-1.264260610E-1,1.117960612E-2,6.109110514E-2,-5.040486654E-3
4.057556152E0,5.844116211E-3,-3.921190898E-4,-1.243456205E-1,5.854288737E-3,5.327860514E-2,-3.982543945E-3
4.072479248E0,-6.498575211E-2,3.342843056E-2,-1.280797323E-1,1.948038737E-3,6.251017253E-2,-4.689534505E-3
4.087371826E0,-6.632725398E-2,-1.803731918E-2,-9.586286545E-2,-7.995605469E-3,6.499735514E-2,-1.178995768E-2
4.102264404E0,-2.461862564E-2,-6.008040905E-2,-9.054660797E-3,-8.702596029E-3,4.227193197E-2,-1.853434245E-2
4.117156982E0,-1.343758901E-2,-2.304430803E-2,-3.954728444E-3,-1.190185547E-2,3.268432617E-2,-1.711527507E-2
4.132080078E0,-2.315823237E-2,1.909418901E-2,-2.714681625E-2,-8.346557617E-3,3.836568197E-2,-1.498921712E-2
4.146972656E0,-3.325080872E-2,4.101773103E-2,-1.101729075E-1,-4.445393880E-3,4.724121094E-2,-1.782735189E-2
4.161865234E0,-5.846198400E-2,6.066203117E-2,-1.060058276E-1,-2.309163411E-3,5.150349935E-2,-2.385965983E-2
4.176757812E0,-2.690362930E-2,1.725844542E-2,4.298575719E-2,-7.639567057E-3,4.724121094E-2,-2.954101562E-2
4.191650391E0,-6.830517451E-2,-2.351311843E-2,-5.544010798E-2,-8.351643880E-3,2.877807617E-2,-3.487141927E-2
4.206573486E0,-6.402762731E-2,-1.573904355E-2,-1.043294271E-1,-1.958211263E-3,3.304036458E-2,-3.486633301E-2
4.221466064E0,-3.652064006E-2,7.222890854E-3,1.895602544E-2,-4.089355469E-3,3.232828776E-2,-2.670288086E-2
4.236358642E0,-9.702777863E-2,-2.694646517E-3,1.697206497E-2,-1.012674967E-2,2.025858561E-2,-2.421569824E-2
4.251251221E0,-1.300857862E-1,-1.044340928E-2,-9.671163559E-2,-1.154581706E-2,3.942871094E-2,-2.421569824E-2
4.266174316E0,-9.249321620E-2,1.549641291E-3,-5.678240458E-2,-1.083374023E-2,4.866536458E-2,-1.924641927E-2
4.281066894E0,-1.386432648E-1,3.747888406E-2,-4.503250122E-3,-1.580810547E-2,4.155985514E-2,-1.605224609E-2
4.295959473E0,-1.347759565E-1,-1.311914126E-2,-3.703578313E-2,-1.082865397E-2,3.765869141E-2,-1.960245768E-2
4.310852051E0,-1.436630885E-2,-3.739670912E-2,-7.046906153E-2,-1.241048177E-3,1.564025879E-2,-1.782735189E-2
4.325744629E0,6.433041890E-2,-3.907231490E-2,4.218737284E-2,8.799235026E-4,-5.666097005E-3,-1.143391927E-2
4.340667725E0,3.126080831E-2,2.172887325E-2,1.348511378E-2,-5.340576172E-4,-1.241556803E-2,-1.107788086E-2
4.355560303E0,2.661005656E-2,3.324985504E-2,-2.867857615E-2,6.210327148E-3,5.345662435E-3,-1.108296712E-2
4.370452881E0,-2.390877406E-2,1.917024453E-2,-5.270020167E-2,4.440307617E-3,1.564025879E-2,-1.356506348E-2
4.385345459E0,-4.812908173E-2,1.046673457E-2,-2.682733536E-2,3.372192383E-3,1.883951823E-2,-1.570129395E-2
4.400268555E0,-4.347101847E-2,-1.522958279E-2,-4.639720917E-2,-5.340576172E-4,2.735900879E-2,-1.711018880E-2
4.415161133E0,-6.308714549E-3,-5.585749944E-2,-8.067242304E-2,-1.958211263E-3,1.670328776E-2,-1.782226562E-2
4.430053711E0,9.746551514E-3,-3.537352880E-2,-1.104057630E-1,-1.780192057E-4,4.984537760E-3,-1.746622721E-2
4.444946289E0,-7.949193319E-3,-1.029491425E-3,-7.621431351E-2,-2.309163411E-3,4.277547201E-3,-1.356506348E-2
4.459838867E0,-3.361225128E-2,-2.214876811E-2,4.753271739E-3,-8.707682292E-3,7.115681966E-3,-1.143900553E-2
4.474761963E0,-1.035234133E-1,1.470247904E-4,-4.277420044E-2,-1.403299967E-2,3.921508789E-3,-1.320902507E-2
4.489654541E0,-6.988684336E-2,4.914919535E-3,-5.692164103E-2,-7.990519206E-3,6.408691406E-3,-1.143391927E-2
4.504547119E0,-1.274951299E-2,-7.729450862E-3,4.964399338E-2,-1.083374023E-2,1.795450846E-3,-6.459554036E-3
4.519439697E0,2.748489380E-2,-2.659674486E-2,1.279544830E-2,-1.225280762E-2,-8.509318034E-3,-6.815592448E-3
4.534332275E0,1.894378662E-2,-3.283715248E-2,-1.169363658E-3,-6.215413411E-3,-3.178914388E-3,-7.171630859E-3
4.549255371E0,-6.926854451E-3,5.867282550E-3,2.092345556E-2,-2.665201823E-3,3.712972005E-4,-5.757649740E-3
4.564147949E0,1.788775126E-3,1.759159565E-2,3.266763687E-2,-3.021240234E-3,3.209431966E-3,-6.108601888E-3
4.579040527E0,2.215464910E-2,-1.000277201E-2,-4.465786616E-2,-8.900960286E-4,5.696614583E-3,-6.815592448E-3
4.593933105E0,-7.711410522E-3,-9.160359701E-3,-4.566923777E-2,3.372192383E-3,8.534749349E-3,-6.459554036E-3
4.608856201E0,-5.136156082E-2,-2.219955126E-3,-2.000840505E-2,1.592000326E-3,1.422119141E-2,-5.396525065E-3
4.623748779E0,-6.576887767E-2,2.133806547E-3,-7.659594218E-4,1.235961914E-3,2.132161458E-2,-4.338582357E-3
4.638641357E0,-1.510397593E-2,-9.268561999E-3,-8.462524414E-2,2.660115560E-3,1.564025879E-2,-4.694620768E-3
4.653533935E0,8.555587133E-2,4.508733749E-3,-3.332742055E-2,5.854288737E-3,1.138305664E-2,-7.527669271E-3
4.668426514E0,9.043804804E-2,2.100865046E-3,-2.804613113E-2,1.678466797E-4,3.921508789E-3,-9.307861328E-3
4.683349609E0,1.012919744E-1,-1.014208794E-2,-5.811436971E-2,1.235961914E-3,4.272460938E-3,-1.534016927E-2
4.698242187E0,1.264120738E-1,3.207349777E-2,-7.076247533E-2,2.304077148E-3,1.209004720E-2,-1.782226562E-2
4.713134766E0,8.110618591E-2,2.594753106E-2,-6.179889043E-2,-8.900960286E-4,1.315307617E-2,-2.173360189E-2
4.728027344E0,4.737297694E-2,-2.643044790E-2,-5.791012446E-2,-7.283528646E-3,2.344767253E-2,-3.309631348E-2
4.742950439E0,-3.592793147E-2,-7.316811879E-2,4.787604014E-3,-1.438395182E-2,3.055318197E-2,-4.374694824E-2
4.757843017E0,-6.105995178E-2,-8.792034785E-2,8.755207062E-3,-1.616414388E-2,2.557881673E-2,-4.836527507E-2
4.772735596E0,-1.293894450E-1,-5.958990256E-2,-2.916097641E-2,-1.118977865E-2,2.345275879E-2,-4.445902507E-2
4.787628174E0,-9.921455383E-2,-1.344192028E-2,-6.756782532E-4,-5.152384440E-3,2.558390299E-2,-3.913370768E-2
4.802551269E0,-7.143386205E-2,3.950921694E-2,9.853680929E-2,-1.953125000E-3,1.137797038E-2,-3.096516927E-2
4.817443848E0,-7.362953822E-2,6.315823396E-2,2.494875590E-2,-1.958211263E-3,3.209431966E-3,-2.635192871E-2
4.832336426E0,-4.225174586E-2,9.605085850E-2,4.128408432E-2,1.953125000E-3,9.958902995E-3,-2.457173665E-2
4.847229004E0,3.137207031E-2,1.091760794E-1,-7.007646561E-2,2.304077148E-3,9.602864583E-3,-1.995849609E-2
4.862121582E0,7.555166880E-3,6.947294871E-2,-2.611144384E-2,-1.780192057E-4,1.741027832E-2,-1.995849609E-2
4.877044678E0,-4.279232025E-2,-1.052482923E-2,-1.127963066E-1,-9.414672852E-3,1.848347982E-2,-2.741495768E-2
4.891937256E0,-8.038345973E-2,-4.966549079E-2,-6.082344055E-2,-1.509602865E-2,3.233337402E-2,-3.132120768E-2
4.906829834E0,-6.490230560E-2,-1.237462759E-1,-2.718098958E-2,-2.007039388E-2,2.664693197E-2,-2.563476562E-2
4.921722412E0,1.378361384E-2,-1.468565067E-1,-9.801212947E-2,-2.042134603E-2,1.350911458E-2,-2.066548665E-2
4.936645508E0,-3.875780106E-2,-1.084141334E-1,3.720235825E-2,-1.545206706E-2,1.525878906E-5,-1.250203451E-2
4.951538086E0,-3.840812047E-2,-4.146297773E-2,-8.892536163E-3,-1.687113444E-2,-7.797241211E-3,-2.909342448E-3
4.966430664E0,-5.791346232E-3,5.597778161E-2,4.610188802E-2,-2.660115560E-3,-7.085164388E-3,1.347859701E-3
4.981323242E0,7.726383209E-2,1.017935673E-1,1.109425227E-2,-3.728230794E-3,-1.738484701E-2,4.547119141E-3
4.996215820E0,1.319111188E-1,8.830026786E-2,-1.313972473E-2,-2.309163411E-3,-1.596069336E-2,2.848307292E-4
5.011138916E0,1.080973943E-1,4.635004203E-2,2.811956406E-2,-5.152384440E-3,-8.509318034E-3,-1.143391927E-2
5.026031494E0,4.261747996E-2,5.832544963E-2,-1.089611053E-1,-8.346557617E-3,1.525878906E-5,-2.315266927E-2
5.040924072E0,-2.539666494E-2,1.676440239E-2,-7.003720601E-2,-7.283528646E-3,2.345275879E-2,-2.670796712E-2
5.055816650E0,-9.460767110E-2,-4.460815589E-2,-4.829851786E-2,-1.935323079E-2,1.670837402E-2,-2.812194824E-2
5.070709228E0,-1.339049339E-1,-6.782972813E-2,-2.295525869E-2,-2.006530762E-2,1.102701823E-2,-2.919006348E-2
5.085632324E0,-1.345965068E-1,-8.501756191E-2,-5.149777730E-2,-2.539062500E-2,9.602864583E-3,-1.605733236E-2
5.100524902E0,-1.168880463E-1,-8.411451181E-2,-3.695631027E-2,-2.681477865E-2,-1.408894857E-3,-8.595784505E-3
5.115417480E0,-5.748303731E-2,-6.772240003E-2,-4.674593608E-2,-2.432759603E-2,-7.797241211E-3,-7.629394531E-5
5.130310058E0,4.515425364E-2,-3.095694383E-2,7.519563039E-3,-2.325948079E-2,-1.915995280E-2,7.385253906E-3
5.145233154E0,9.104633331E-2,-1.305846373E-2,2.700980504E-2,-2.361551921E-2,-2.661641439E-2,1.129659017E-2
5.160125732E0,8.712577820E-2,-2.480308215E-3,-6.582260132E-3,-1.864624023E-2,-2.519734701E-2,1.412963867E-2
5.175018310E0,6.451876958E-2,2.191432317E-2,6.440464656E-2,-1.793416341E-2,-1.845296224E-2,1.094055176E-2
5.189910889E0,5.473486582E-2,2.285071214E-2,-5.263169607E-3,-1.722717285E-2,-6.729125977E-3,1.165262858E-2
5.204803467E0,2.381594976E-2,7.005254428E-3,2.793757121E-2,-1.545206706E-2,-3.407796224E-4,5.610148112E-3
5.219726562E0,-1.633961995E-2,-2.675199509E-2,-6.205399831E-2,-1.722717285E-2,3.209431966E-3,-1.846313477E-3
5.234619141E0,-5.297692617E-2,-4.873617490E-2,7.729212443E-3,-9.765625000E-3,5.340576172E-3,-7.832845052E-4
5.249511719E0,-8.332888285E-2,5.956212680E-3,1.679213842E-2,-1.048278809E-2,3.712972005E-4,6.673177083E-3
5.264404297E0,-1.089030902E-1,7.005651792E-3,6.149450938E-3,-8.702596029E-3,1.525878906E-5,1.164754232E-2
5.279327392E0,-5.862394969E-2,-7.856726646E-3,-4.889281591E-2,-1.012674967E-2,-9.216308594E-3,1.022847493E-2
5.294219971E0,1.395400365E-2,-3.780682882E-3,-2.007182439E-2,-9.765625000E-3,-1.099141439E-2,1.093546549E-2
5.309112549E0,2.991914749E-2,3.081603845E-2,-1.127433777E-2,-1.402791341E-2,-1.134745280E-2,1.767985026E-2
5.324005127E0,3.017807007E-2,-2.882202466E-3,-4.406197866E-2,-1.260884603E-2,-1.241048177E-2,1.555379232E-2
5.338928223E0,3.006935120E-3,-2.852002780E-2,2.286815643E-2,-1.119486491E-2,-1.241048177E-2,1.235961914E-2
5.353820801E0,1.648759842E-2,-2.498249213E-2,1.189247767E-2,-1.154581706E-2,-2.413431803E-2,1.342264811E-2
5.368713379E0,-9.072780609E-3,1.572330793E-2,5.994192759E-2,-9.058634440E-3,-1.986694336E-2,1.661682129E-2
5.383605957E0,-2.340952555E-3,-8.557240168E-4,4.333893458E-2,-8.702596029E-3,-1.418558757E-2,1.732889811E-2
5.398498535E0,6.572246552E-3,-6.270766258E-3,3.079875310E-2,-5.859375000E-3,-1.418558757E-2,1.484171549E-2
5.413421631E0,5.289252599E-2,3.827015559E-4,-3.677193324E-2,-8.900960286E-4,-2.466837565E-3,1.412963867E-2
5.428314209E0,1.280164719E-2,-1.486500104E-2,-1.563231150E-3,-2.309163411E-3,-1.759847005E-3,1.306152344E-2
5.443206787E0,-1.974376043E-2,2.044105530E-2,-3.817876180E-2,-1.780192057E-4,-1.047770182E-3,1.022847493E-2
5.458099365E0,-1.508378983E-2,3.988981247E-2,4.136403402E-3,5.289713542E-4,2.497355143E-3,9.160359701E-3
5.472991943E0,-7.510344187E-3,2.730739117E-2,4.847844442E-5,-5.340576172E-4,-3.534952799E-3,1.094055176E-2
5.487915039E0,9.265899658E-3,1.458994548E-2,2.896340688E-2,-2.314249674E-3,-6.729125977E-3,7.385253906E-3
5.502807617E0,3.942012787E-3,-2.669254939E-3,-2.238337199E-2,-2.665201823E-3,-6.017049154E-3,3.122965495E-3
5.517700195E0,-9.567737579E-3,-2.001611392E-2,-1.546049118E-2,1.948038737E-3,-3.896077474E-3,2.410888672E-3
5.532592773E0,-3.130944570E-2,-1.616772016E-2,1.093085607E-2,1.729329427E-4,3.712972005E-4,2.766927083E-3
5.547515869E0,-4.123846690E-3,-1.518690586E-2,1.730918884E-3,-1.602172852E-3,3.712972005E-4,4.542032878E-3
5.562408447E0,2.078390121E-2,-3.784954548E-2,-9.413560232E-3,5.508422852E-3,-2.115885417E-3,4.191080729E-3
5.577301025E0,-2.126693726E-4,7.577856382E-3,4.215272268E-2,3.372192383E-3,-1.052856445E-3,8.097330729E-3
5.592193603E0,-4.859161377E-2,2.484623591E-2,4.159164429E-2,4.440307617E-3,4.277547201E-3,1.058451335E-2
5.607086182E0,-4.654486974E-2,-2.257335186E-2,7.953691483E-2,1.224772135E-2,6.052652995E-3,1.200866699E-2
5.622009277E0,9.620189667E-3,-3.815730413E-3,3.549989065E-2,1.579284668E-2,3.921508789E-3,1.200358073E-2
5.636871338E0,2.658748627E-2,2.046672503E-2,5.781841278E-2,2.041625977E-2,6.052652995E-3,1.412963867E-2
5.651763916E0,5.783128738E-2,3.568291664E-3,-2.982473373E-2,2.183532715E-2,1.386515299E-2,1.164754232E-2
5.666656494E0,6.012598674E-2,1.108618577E-2,1.696300507E-2,2.858479818E-2,1.883443197E-2,8.804321289E-3
5.681579590E0,1.765807470E-2,-1.019525528E-2,-8.799664179E-2,2.184041341E-2,2.060953776E-2,8.092244466E-3
5.696502685E0,1.002868017E-2,-1.862823963E-2,-8.078495661E-2,2.786763509E-2,2.842712402E-2,5.259195964E-3
5.711395264E0,-1.452732086E-2,1.651275158E-2,8.146921794E-3,2.219136556E-2,2.096557617E-2,6.317138672E-3
5.726287842E0,-4.560073217E-2,1.907308896E-2,-7.873837153E-2,1.473490397E-2,1.635233561E-2,8.804321289E-3
5.741180420E0,-3.839143117E-2,1.242824395E-2,-9.816916784E-2,1.721700033E-2,2.238972982E-2,9.872436523E-3
5.756103516E0,-2.821334203E-2,7.154027621E-3,-7.307052612E-3,1.117960612E-2,1.173400879E-2,1.129659017E-2
5.770996094E0,2.232344945E-2,-4.239161809E-3,-7.359139125E-2,4.791259766E-3,-6.917317708E-4,1.235961914E-2
5.785888672E0,1.561752955E-2,1.335565249E-2,1.748323441E-2,6.922403971E-3,-3.407796224E-4,1.058451335E-2
5.800781250E0,-1.034371058E-2,5.742132664E-2,-4.296302795E-3,-8.900960286E-4,-3.178914388E-3,1.342264811E-2
5.815673828E0,-3.369808197E-2,1.815672716E-2,6.151676178E-3,-3.733317057E-3,8.539835612E-3,1.093546549E-2
5.830596924E0,2.397616704E-2,-2.003324032E-2,-2.460829417E-2,-3.377278646E-3,7.273356120E-4,4.185994466E-3
5.845489502E0,3.073978424E-2,-8.818030357E-3,5.545663834E-2,-4.445393880E-3,-5.666097005E-3,3.835042318E-3
5.860382080E0,1.644357045E-2,-2.560782433E-2,1.794878642E-2,-3.728230794E-3,-5.310058594E-3,4.191080729E-3
5.875274658E0,-1.871776581E-2,5.939483643E-3,-1.210737228E-2,3.016153971E-3,1.434326172E-3,3.122965495E-3
5.890197754E0,-3.674952189E-2,1.133473714E-2,1.870139440E-2,5.238850911E-4,6.759643555E-3,4.191080729E-3
5.905090332E0,-2.046839396E-2,2.677532037E-2,-1.766475042E-2,5.289713542E-4,7.466634115E-3,5.615234375E-3
5.919982910E0,-2.861166000E-2,-1.347331206E-2,1.920111974E-2,3.016153971E-3,6.408691406E-3,3.835042318E-3
5.934875488E0,1.269149780E-2,-4.250172774E-2,-6.315263112E-2,-8.850097656E-4,1.434326172E-3,4.191080729E-3
5.949768066E0,4.626750946E-3,-2.621964614E-2,-6.240049998E-3,3.016153971E-3,7.827758789E-3,7.034301758E-3
5.964691162E0,-3.584035238E-2,-2.572639783E-2,1.038090388E-2,1.235961914E-3,6.408691406E-3,9.872436523E-3
5.979583740E0,-1.822328568E-2,-9.957353274E-3,3.604920705E-2,1.592000326E-3,2.034505208E-5,1.377868652E-2
5.994476318E0,-1.353216171E-2,-2.030014992E-3,7.259909312E-2,1.948038737E-3,-3.407796224E-4,1.697794596E-2
6.009338379E0,3.303639094E-2,-7.681608200E-3,7.374763489E-3,6.210327148E-3,-2.115885417E-3,1.732889811E-2
6.024230957E0,4.717747370E-2,-5.758047104E-3,4.429594676E-2,8.341471354E-3,6.047566732E-3,1.662190755E-2
6.039154053E0,4.710642497E-2,-1.570860545E-3,6.763776143E-3,7.273356120E-3,6.759643555E-3,1.448567708E-2
6.054077148E0,3.535429637E-3,-2.505115668E-2,-2.286116282E-3,1.153564453E-2,8.890787760E-3,1.165262858E-2
6.068939209E0,-1.625029246E-2,-3.673911095E-3,3.849029541E-3,1.154073079E-2,1.315307617E-2,1.164754232E-2
6.083831787E0,-1.840130488E-2,2.188257376E-2,6.913344065E-3,1.402282715E-2,1.492818197E-2,1.555379232E-2
6.098754883E0,1.569970449E-2,2.374382814E-2,1.296075185E-2,1.366678874E-2,1.066589355E-2,1.484171549E-2
6.113677978E0,4.265928268E-2,-7.782936096E-3,-3.825060527E-2,1.259867350E-2,3.565470378E-3,9.872436523E-3
6.128570557E0,5.428330104E-2,7.858951886E-3,-5.963754654E-2,1.295471191E-2,7.115681966E-3,6.673177083E-3
6.143493652E0,-2.514934540E-2,8.601188660E-3,8.015950521E-3,6.566365560E-3,1.031494141E-2,7.380167643E-3
6.158325195E0,-8.024660746E-2,1.405592759E-2,-4.019451141E-2,6.566365560E-3,1.847839355E-2,6.317138672E-3
6.173248291E0,-4.467439651E-2,5.483031273E-3,-1.073249181E-2,7.985432943E-3,9.958902995E-3,5.961100260E-3
6.188171387E0,3.641176224E-2,-1.634355386E-2,2.167924245E-2,5.152384440E-3,-6.968180339E-4,6.673177083E-3
6.203063965E0,2.199602127E-2,-1.406514645E-2,2.726125717E-2,3.016153971E-3,-9.221394857E-3,9.160359701E-3
6.217956543E0,2.935298284E-2,-2.866995335E-2,3.545522690E-2,4.440307617E-3,1.078287760E-3,7.380167643E-3
6.232879639E0,4.225730896E-3,1.473903656E-3,-2.098496755E-2,4.796346029E-3,5.696614583E-3,1.129150391E-2
6.247772217E0,-5.969190598E-2,3.441611926E-3,4.164187113E-2,4.791259766E-3,1.457722982E-2,1.341756185E-2
6.262664795E0,-4.838069280E-2,-2.975026766E-3,-5.353609721E-3,3.728230794E-3,1.279703776E-2,1.412963867E-2
6.277557373E0,2.074464162E-2,-2.161085606E-2,-3.624693553E-2,1.153564453E-2,6.759643555E-3,1.341756185E-2
6.292449951E0,6.339597702E-2,-3.134139379E-2,4.379622142E-2,9.409586589E-3,-3.407796224E-4,1.342264811E-2
6.307373047E0,1.684983571E-3,-5.668719610E-3,-1.330248515E-2,6.210327148E-3,-3.184000651E-3,1.484171549E-2
6.322265625E0,-5.864334106E-2,1.677620411E-2,1.929505666E-2,1.047770182E-2,1.173909505E-2,1.662190755E-2
6.337158203E0,-4.669968287E-2,-4.439949989E-3,1.847426097E-3,9.053548177E-3,1.742045085E-2,1.697285970E-2
6.352057599E0,4.811286926E-3,-1.364640395E-2,3.403345744E-3,1.154073079E-2,-6.917317708E-4,1.555379232E-2
6.366980695E0,2.551158269E-2,2.847063541E-2,7.273864746E-2,1.473490397E-2,-2.827962240E-3,1.626586914E-2
6.381873273E0,7.095495860E-3,2.473946412E-2,-2.227306366E-2,1.331075033E-2,-6.968180339E-4,1.697794596E-2
6.396765851E0,-4.552046458E-3,3.940049807E-2,1.187086105E-2,1.544189453E-2,1.137797038E-2,1.662190755E-2
6.411658429E0,-2.813339233E-2,4.129787286E-2,-3.224325180E-2,1.118469238E-2,8.890787760E-3,1.555379232E-2
6.426551007E0,-1.470104853E-2,8.336464564E-3,1.519282659E-2,1.260375977E-2,1.350911458E-2,1.377360026E-2
6.441474103E0,1.396497091E-2,-2.132956187E-2,-5.437453588E-2,9.760538737E-3,6.052652995E-3,1.094055176E-2
6.456366681E0,4.563601812E-2,-2.456096808E-2,4.806518555E-4,1.295471191E-2,3.921508789E-3,9.872436523E-3
6.471259259E0,2.963542938E-3,2.069628239E-2,9.247303009E-3,7.990519206E-3,3.921508789E-3,1.342264811E-2
6.486151837E0,-4.444917043E-3,-7.922649384E-4,-3.284470240E-2,7.629394531E-3,6.764729818E-3,1.626586914E-2
6.501044416E0,4.518985748E-3,1.496918996E-2,-6.575425466E-3,7.273356120E-3,9.958902995E-3,1.235961914E-2
6.515967511E0,-1.117436091E-2,-1.264472802E-2,8.991082509E-3,3.372192383E-3,7.115681966E-3,1.058451335E-2
6.530860089E0,-2.575238546E-2,-2.473505338E-2,1.896111170E-2,4.084269206E-3,4.633585612E-3,8.804321289E-3
6.545752668E0,-2.538156509E-2,2.429366112E-3,-5.607604980E-3,3.372192383E-3,4.984537760E-3,9.872436523E-3
6.560645246E0,4.019419352E-3,1.201589902E-3,4.794438680E-3,5.152384440E-3,7.324218750E-4,1.200358073E-2
6.575568341E0,3.657341003E-4,9.973764420E-3,6.841707230E-2,7.990519206E-3,-3.356933594E-4,1.129659017E-2
6.590460919E0,1.938708623E-2,-5.269328753E-3,2.876726786E-2,1.012166341E-2,3.712972005E-4,1.200866699E-2
6.605353498E0,3.058099747E-2,-1.345260938E-2,2.656253179E-2,1.224772135E-2,6.047566732E-3,1.235961914E-2
6.620246076E0,4.272460938E-3,1.286625862E-2,-3.306070964E-5,1.012166341E-2,4.272460938E-3,1.022847493E-2
6.635169171E0,-1.614888509E-2,7.733424505E-3,-2.278741201E-2,1.331075033E-2,1.741536458E-2,1.129659017E-2
6.650061750E0,-1.748927434E-2,-4.312793414E-3,-8.608818054E-3,1.544189453E-2,1.634724935E-2,1.058451335E-2
6.664954328E0,6.906191508E-4,1.988557974E-2,-3.750292460E-2,1.650492350E-2,1.102701823E-2,1.058451335E-2
6.679846906E0,9.029706319E-4,6.686846415E-4,-1.206858953E-2,1.615397135E-2,9.958902995E-3,1.094055176E-2
6.694739484E0,4.880285263E-2,-5.481799444E-3,-1.070324580E-2,1.509094238E-2,4.633585612E-3,8.448282878E-3
6.709662580E0,-8.562246958E-3,-9.083946546E-3,3.544489543E-2,1.402282715E-2,5.340576172E-3,9.872436523E-3
6.724555158E0,-6.696875890E-2,-6.706555684E-3,-8.188247681E-3,1.224772135E-2,1.102701823E-2,1.129659017E-2
6.739447736E0,-7.005023956E-2,-5.686720212E-3,-6.075302760E-2,1.437886556E-2,1.777140299E-2,1.164754232E-2
6.754340314E0,-3.152449926E-2,9.960651398E-3,1.030286153E-3,1.117960612E-2,1.350911458E-2,1.271057129E-2
6.769263410E0,-1.046514511E-2,-1.586198807E-3,1.859521866E-2,6.571451823E-3,3.921508789E-3,1.662190755E-2
6.784155988E0,6.614096959E-2,-1.820119222E-2,5.484898885E-3,1.366678874E-2,-6.022135417E-3,1.413472493E-2
6.799048566E0,1.045006116E-1,1.118469238E-2,5.299393336E-2,1.012166341E-2,-1.276652018E-2,1.555379232E-2
6.813941144E0,4.804595311E-2,2.669652303E-2,6.666819255E-3,8.697509766E-3,-3.890991211E-3,1.519775391E-2
6.828833722E0,-1.644357045E-2,2.309083939E-3,-1.664940516E-2,8.697509766E-3,1.030985514E-2,1.235961914E-2
6.843756818E0,-1.822916667E-2,9.930769602E-3,1.097838084E-3,8.341471354E-3,1.564025879E-2,1.058451335E-2
6.858649396E0,-5.570522944E-2,3.528197606E-3,-4.276593526E-2,8.341471354E-3,8.539835612E-3,8.804321289E-3
6.873541974E0,-2.536360423E-2,1.797382037E-2,-1.058928172E-2,8.697509766E-3,7.471720378E-3,8.092244466E-3
6.888434552E0,-1.243257523E-2,4.286289215E-3,-9.231885274E-3,7.629394531E-3,3.209431966E-3,1.022847493E-2
6.903357648E0,4.540681839E-2,-6.576458613E-3,-8.007208506E-3,6.922403971E-3,-3.407796224E-4,8.097330729E-3
6.918250226E0,5.520677567E-2,-1.842498779E-2,1.421070099E-2,4.796346029E-3,-5.661010742E-3,7.736206055E-3
6.933142804E0,5.535475413E-2,-1.535693804E-2,1.012214025E-2,4.796346029E-3,-7.797241211E-3,5.610148112E-3
6.948035382E0,2.575763067E-2,5.317370097E-3,1.116212209E-2,3.723144531E-3,1.017252604E-5,3.479003906E-3
6.962927960E0,-6.563186646E-3,3.842274348E-3,-3.758843740E-2,4.084269206E-3,4.633585612E-3,3.835042318E-3
6.977851056E0,-4.638846715E-2,-7.913907369E-4,-2.498308818E-3,2.304077148E-3,7.827758789E-3,3.835042318E-3
6.992743634E0,-4.137357076E-2,5.553086599E-3,3.025468191E-2,2.660115560E-3,1.439412435E-3,3.479003906E-3
7.007636212E0,3.301779429E-3,7.454236348E-3,-5.511442820E-3,3.016153971E-3,-6.917317708E-4,5.259195964E-3
7.022528791E0,7.074673971E-3,8.007287979E-3,1.499652863E-3,4.796346029E-3,-1.047770182E-3,5.966186523E-3
7.037421369E0,3.665224711E-2,-1.204284032E-2,4.951159159E-3,3.372192383E-3,1.525878906E-5,3.479003906E-3
7.052344464E0,4.914681117E-2,-2.516857783E-2,6.594975789E-3,1.592000326E-3,7.324218750E-4,9.969075521E-4
7.067237043E0,-2.454408010E-2,2.295994759E-2,8.898893992E-3,1.235961914E-3,7.273356120E-4,-6.612141927E-5
7.082129621E0,-3.363259633E-2,6.151358287E-3,6.973266602E-3,2.660115560E-3,8.539835612E-3,2.054850260E-3
7.097022199E0,-1.997454961E-2,6.514151891E-3,2.226622899E-2,3.372192383E-3,4.989624023E-3,2.054850260E-3
7.111945294E0,-1.055685679E-2,-2.891222636E-3,-1.029491425E-2,8.799235026E-4,3.565470378E-3,9.918212891E-4
7.126837873E0,3.196907043E-2,4.913806915E-4,2.444712321E-2,6.210327148E-3,7.115681966E-3,2.410888672E-3
7.141730451E0,9.233156840E-4,4.001855850E-3,-1.107899348E-2,7.273356120E-3,4.989624023E-3,-4.221598307E-4
7.156623029E0,5.422751109E-3,-2.400859197E-2,1.233021418E-2,9.409586589E-3,7.115681966E-3,-1.846313477E-3
7.171515607E0,-6.022453308E-3,-8.854309718E-3,-1.795117060E-2,6.210327148E-3,5.696614583E-3,-1.134236654E-3
7.186438703E0,-4.271459579E-2,1.013875008E-2,-4.254976908E-3,7.278442383E-3,7.115681966E-3,-1.134236654E-3
7.201331281E0,-4.742209117E-2,-4.043658574E-3,-1.104752223E-2,7.985432943E-3,9.602864583E-3,2.415974935E-3
7.216223859E0,-1.838922501E-2,9.482145309E-3,-2.612749736E-3,6.566365560E-3,7.822672526E-3,6.408691406E-4
7.231116437E0,-3.650967280E-2,-1.012913386E-2,-5.449136098E-3,4.796346029E-3,6.052652995E-3,2.054850260E-3
7.246039533E0,1.882028580E-2,6.325403849E-3,-1.160828273E-2,3.728230794E-3,3.565470378E-3,1.698811849E-3
7.260932111E0,2.028147380E-2,2.680571874E-2,3.428618113E-3,8.341471354E-3,3.565470378E-3,3.479003906E-3
7.275824689E0,-4.768848419E-3,1.187125842E-2,1.408433914E-2,8.341471354E-3,8.890787760E-3,6.317138672E-3
7.290717267E0,-3.362464905E-2,6.754795710E-3,2.327140172E-2,9.053548177E-3,9.958902995E-3,3.128051758E-3
7.305609845E0,-1.752201716E-2,-4.865407944E-3,3.450489044E-2,8.697509766E-3,9.602864583E-3,6.408691406E-4
7.320532941E0,-2.805391947E-4,-4.114317894E-2,2.175172170E-2,1.153564453E-2,5.701700846E-3,2.766927083E-3
7.335425519E0,2.111180623E-2,-1.948690414E-2,1.216411591E-2,1.509094238E-2,2.853393555E-3,-4.221598307E-4
7.350318097E0,5.428044001E-2,8.870840073E-3,-2.171897888E-2,1.437886556E-2,4.277547201E-3,3.122965495E-3
7.365210675E0,2.707052231E-2,-3.782908122E-4,-1.792907715E-3,1.899210612E-2,1.173400879E-2,4.547119141E-3
7.380103253E0,1.590696971E-2,2.393349012E-2,1.803127925E-2,1.792907715E-2,1.350402832E-2,4.191080729E-3
7.395026349E0,-3.845246633E-2,3.389509519E-2,-3.286234538E-2,1.402282715E-2,1.742045085E-2,4.547119141E-3
7.409918927E0,-5.714591344E-2,8.952140808E-3,-3.006331126E-2,1.437886556E-2,1.457722982E-2,6.408691406E-4
7.424811505E0,-6.571610769E-3,1.999497414E-2,-3.870010376E-2,1.047261556E-2,7.471720378E-3,-2.558390299E-3
7.439704084E0,2.503458659E-2,2.397378286E-2,-4.275862376E-2,9.409586589E-3,6.408691406E-3,-7.781982422E-4
7.454627179E0,3.390502930E-2,-4.016955694E-3,-6.942637761E-2,6.561279297E-3,3.712972005E-4,-2.914428711E-3
7.469519757E0,4.211235046E-2,2.265373866E-3,-1.165262858E-2,4.440307617E-3,-2.471923828E-3,-4.338582357E-3
7.484412335E0,-2.256552378E-2,1.388231913E-2,1.178042094E-2,-1.246134440E-3,-5.666097005E-3,-3.982543945E-3
7.499304914E0,-5.795796712E-2,-8.712927500E-3,-1.913277308E-2,-4.445393880E-3,-3.407796224E-4,-2.914428711E-3
7.514197492E0,-4.215494792E-2,-2.281443278E-2,-8.065700531E-3,-4.089355469E-3,7.273356120E-4,-2.202351888E-3
7.529120587E0,-4.360516866E-3,-2.555958430E-2,-2.840550741E-2,-7.283528646E-3,2.034505208E-5,-4.221598307E-4
7.544013166E0,1.734383901E-2,-4.416958491E-2,7.743676503E-3,-5.859375000E-3,-1.403808594E-3,-4.221598307E-4
7.558905744E0,5.905167262E-2,-1.085925102E-2,7.870674133E-3,-4.089355469E-3,-4.608154297E-3,-6.612141927E-5
7.573798322E0,3.536939621E-2,2.666076024E-3,5.158297221E-2,-1.241048177E-3,-3.896077474E-3,2.848307292E-4
7.588690900E0,-8.526802063E-3,-9.999434153E-3,1.427570979E-2,-1.246134440E-3,-1.403808594E-3,1.342773438E-3
7.603613996E0,-2.726078033E-3,-4.345019658E-3,5.105845133E-2,2.304077148E-3,1.434326172E-3,-7.781982422E-4
7.618506574E0,-5.297342936E-3,-1.148382823E-2,-4.385868708E-2,2.304077148E-3,2.497355143E-3,-1.846313477E-3
7.633399152E0,1.150083542E-2,1.718576749E-2,6.461302439E-3,3.016153971E-3,5.345662435E-3,-1.490275065E-3
7.648291730E0,-3.019809723E-3,9.647766749E-3,-2.839803696E-2,8.850097656E-4,7.273356120E-4,2.899169922E-4
7.663214826E0,-8.207798004E-3,-6.486256917E-3,-8.094549179E-2,8.799235026E-4,2.034505208E-5,-1.134236654E-3
7.678107404E0,-2.070363363E-2,9.168306986E-3,2.753257751E-3,-1.780192057E-4,1.525878906E-5,-4.338582357E-3
7.692999982E0,4.475116730E-3,1.890961329E-2,-1.068862279E-2,-3.377278646E-3,-3.540039062E-3,-3.270467122E-3
7.707892560E0,6.049903234E-2,1.092481613E-2,-4.218975703E-2,-1.246134440E-3,-6.734212240E-3,-3.626505534E-3
7.722785138E0,6.610155106E-2,3.752390544E-3,1.530647278E-4,-5.152384440E-3,-8.865356445E-3,-6.108601888E-3
7.737708234E0,-1.515404383E-2,-1.924705505E-2,-5.278730392E-2,-1.048278809E-2,-6.917317708E-4,-7.883707682E-3
7.752600812E0,-1.873620351E-2,1.313050588E-3,-3.164688746E-2,-9.058634440E-3,1.078287760E-3,-1.356506348E-2
7.767493390E0,-2.943770091E-2,5.011264483E-2,4.895210266E-3,-1.189676921E-2,-3.184000651E-3,-8.239746094E-3
7.782385968E0,-5.567137400E-2,1.308091482E-2,-1.371304194E-2,-1.331583659E-2,-6.022135417E-3,-5.752563477E-3
7.797309064E0,-4.460159938E-2,-2.033742269E-2,1.160542170E-2,-1.296488444E-2,-6.729125977E-3,-1.001993815E-2
7.812201642E0,8.445103963E-3,-4.233328501E-2,1.266702016E-2,-1.616414388E-2,-1.063537598E-2,-8.595784505E-3
7.827094220E0,-6.011327108E-4,-2.947155635E-2,1.719411214E-2,-1.367187500E-2,-1.099141439E-2,-5.050659180E-3
7.841986798E0,-1.819753647E-2,-2.289470037E-2,5.002848307E-2,-1.154581706E-2,-1.134745280E-2,-6.459554036E-3
7.856909894E0,1.346667608E-2,-3.573338191E-3,-2.270523707E-2,-6.571451823E-3,-8.153279622E-3,-4.694620768E-3
7.871802472E0,2.196915944E-2,4.945182800E-2,6.112130483E-2,-3.021240234E-3,-7.085164388E-3,-3.626505534E-3
7.886695050E0,-2.021296819E-2,2.680444717E-2,4.932451248E-2,-4.089355469E-3,-6.022135417E-3,-7.781982422E-4
7.901557111E0,-1.293500264E-2,-8.749167124E-3,1.625219981E-3,-1.953125000E-3,3.763834635E-4,-5.401611328E-3
7.916480207E0,-3.594477971E-2,-1.729528109E-2,2.444267273E-3,-1.953125000E-3,-6.917317708E-4,-7.883707682E-3
7.931403302E0,-1.757160823E-2,-1.241803169E-2,-4.592847824E-2,-2.665201823E-3,2.497355143E-3,-4.338582357E-3
7.946295880E0,-2.227322261E-2,-5.053361257E-3,-8.007208506E-3,1.729329427E-4,2.146402995E-3,-3.982543945E-3
7.961188459E0,6.210962931E-3,1.434731483E-2,-8.596738180E-3,-3.021240234E-3,-7.085164388E-3,-4.689534505E-3
7.976081037E0,1.646884282E-2,8.210976919E-3,2.326965332E-3,-2.309163411E-3,-6.729125977E-3,-1.490275065E-3
7.991004132E0,-8.672237396E-3,2.423763275E-2,-8.626302083E-3,-6.571451823E-3,-7.441202799E-3,-4.221598307E-4
8.005866193E0,-6.628513336E-3,2.001023293E-2,1.200040181E-4,-5.152384440E-3,-4.247029622E-3,-7.781982422E-4
8.020789289E0,-1.830848058E-2,2.632816633E-2,2.384217580E-2,-4.796346029E-3,-5.666097005E-3,6.357828776E-4
8.035681867E0,-1.579078039E-2,2.192672094E-2,-3.840923309E-3,-6.215413411E-3,-2.827962240E-3,-2.202351888E-3
8.050574445E0,7.810274760E-3,3.762165705E-3,7.982412974E-3,-6.215413411E-3,-4.603068034E-3,-3.270467122E-3
8.065467023E0,2.355861664E-2,-1.743682226E-2,-5.333741506E-3,-7.278442383E-3,-8.509318034E-3,-4.689534505E-3
8.080390119E0,5.516052246E-3,-6.626923879E-3,1.595958074E-2,-6.210327148E-3,-6.378173828E-3,-4.338582357E-3
8.095282697E0,1.163339615E-2,1.090216637E-2,-3.973897298E-2,-4.440307617E-3,-4.959106445E-3,-3.977457682E-3
8.110175275E0,1.212406158E-2,1.730553309E-2,-6.461620331E-3,-3.733317057E-3,-1.403808594E-3,-5.752563477E-3
8.125067853E0,1.710557938E-2,5.091826121E-3,-3.939421972E-2,-5.508422852E-3,-6.017049154E-3,-6.820678711E-3
8.139990949E0,2.745612462E-2,-5.085070928E-3,-1.719395320E-2,-5.859375000E-3,-3.540039062E-3,-8.951822917E-3
8.154883527E0,-9.364446004E-3,6.343921026E-3,-1.385927200E-2,-9.058634440E-3,-6.373087565E-3,-1.037089030E-2
8.169776105E0,-3.521458308E-2,1.716939608E-2,-1.601219177E-3,-9.058634440E-3,-4.959106445E-3,-8.951822917E-3
8.184668683E0,1.787932714E-2,-1.242876053E-3,-6.188376745E-2,-1.155090332E-2,-3.896077474E-3,-5.401611328E-3
8.199591779E0,-1.644611359E-3,-4.000961781E-2,6.644153595E-2,-1.225280762E-2,-7.792154948E-3,-7.171630859E-3
8.214484357E0,-1.908508937E-2,-3.401112556E-2,-2.091789246E-2,-1.509602865E-2,-1.596069336E-2,-6.820678711E-3
8.229376935E0,-1.248820623E-2,-1.628796260E-4,1.906315486E-2,-9.414672852E-3,-2.827962240E-3,-2.202351888E-3
8.244269513E0,1.464923223E-2,2.856612206E-3,1.019461950E-2,-9.409586589E-3,-4.603068034E-3,-6.612141927E-5
8.259162091E0,3.922764460E-2,9.468595187E-3,-2.407709757E-3,-9.414672852E-3,-7.085164388E-3,-1.846313477E-3
8.274054669E0,3.554407756E-2,8.246938388E-3,-1.685508092E-2,-6.927490234E-3,-4.247029622E-3,-4.338582357E-3
8.288977765E0,4.092486699E-2,1.911584536E-2,2.892812093E-4,-7.283528646E-3,-6.729125977E-3,-5.752563477E-3
8.303870343E0,2.220821381E-2,-6.301601728E-3,-7.570425669E-3,-7.990519206E-3,-3.178914388E-3,-8.951822917E-3
8.318762921E0,-5.006488164E-2,-9.011308352E-3,-6.743748983E-3,-8.702596029E-3,2.146402995E-3,-1.072692871E-2
8.333655500E0,-5.691814423E-2,-3.574796518E-2,-1.386086146E-2,-6.566365560E-3,3.763834635E-4,-1.037089030E-2
8.348517560E0,-3.106911977E-2,-2.287439505E-2,1.744826635E-2,-1.295979818E-2,-8.153279622E-3,-1.072692871E-2
8.363440656E0,-1.729520162E-2,-7.561842601E-4,-2.484083176E-2,-1.260375977E-2,-1.134745280E-2,-6.108601888E-3
8.378363751E0,-1.459741592E-2,-4.404783249E-4,-1.973199844E-2,-1.225280762E-2,-2.115885417E-3,-1.134236654E-3
8.393256330E0,-6.588300069E-4,1.409403483E-2,1.510938009E-3,-1.261393229E-2,-3.178914388E-3,-1.134236654E-3
8.408148908E0,4.854043325E-3,1.709393660E-2,6.944815318E-3,-1.367187500E-2,-7.441202799E-3,-1.490275065E-3
8.423072003E0,3.544839223E-2,9.545008341E-3,3.508202235E-2,-1.225280762E-2,-1.028442383E-2,-4.221598307E-4
8.437964582E0,2.947616577E-2,-1.078470548E-2,3.544584910E-2,-1.119486491E-2,-1.134236654E-2,-5.396525065E-3
8.452857160E0,6.395975749E-4,-1.331551870E-2,5.219777425E-4,-9.414672852E-3,-6.378173828E-3,-3.982543945E-3
8.467749738E0,1.423247655E-2,-3.943880399E-3,-2.069075902E-2,-9.770711263E-3,1.790364583E-3,-2.558390299E-3
8.482672834E0,8.815447489E-3,-6.448109945E-2,-3.296041489E-2,-7.990519206E-3,1.790364583E-3,-5.050659180E-3
8.497565412E0,2.722835541E-2,-1.945598920E-2,-5.253950755E-3,-7.278442383E-3,-7.446289062E-3,-6.464640299E-3
8.512457990E0,-3.137588501E-4,2.077841759E-2,-1.436599096E-2,-8.346557617E-3,-4.959106445E-3,-2.558390299E-3
8.527350568E0,-2.725394567E-2,1.439452171E-2,-3.277079264E-2,-6.927490234E-3,-1.403808594E-3,-7.120768229E-5
8.542243146E0,2.795537313E-3,4.423371951E-2,2.028783162E-3,-8.702596029E-3,-6.378173828E-3,-5.050659180E-3
8.557166242E0,1.117022832E-2,5.288008849E-2,-3.342644374E-2,-9.058634440E-3,-7.797241211E-3,-3.982543945E-3
8.572058820E0,4.719177882E-2,1.836101214E-2,-2.336072922E-2,-1.083882650E-2,-4.247029622E-3,-8.590698242E-3
8.586951398E0,1.260010401E-2,9.060700734E-4,7.240295410E-3,-1.367187500E-2,-1.170349121E-2,-1.001485189E-2
8.601843976E0,-4.717954000E-2,1.044682662E-2,-3.507534663E-2,-1.758321126E-2,-7.802327474E-3,-1.107788086E-2
8.616767072E0,-4.933516184E-2,-3.021121025E-3,1.530551910E-2,-1.829020182E-2,-6.917317708E-4,-8.595784505E-3
8.631659650E0,-2.515029907E-2,-9.690244993E-3,-4.676628113E-2,-2.077738444E-2,-6.734212240E-3,-7.883707682E-3
8.646552228E0,8.031527201E-3,-4.233916601E-3,2.945407232E-2,-2.006530762E-2,-1.205952962E-2,-8.595784505E-3
8.661444806E0,3.700351715E-2,3.383398056E-3,6.311257680E-3,-2.574666341E-2,-1.844787598E-2,-7.527669271E-3
8.676367902E0,1.375770569E-2,-1.953327656E-2,2.270539602E-2,-2.325948079E-2,-9.928385417E-3,-8.951822917E-3
8.691229962E0,1.589552561E-2,2.266120911E-2,-7.035573324E-3,-2.681477865E-2,-6.734212240E-3,-7.888793945E-3
8.706153058E0,-1.819101969E-2,1.266419888E-2,-3.129768372E-2,-2.503458659E-2,-6.968180339E-4,-5.401611328E-3
8.721045636E0,-1.202122370E-2,-1.169375579E-2,5.570888519E-3,-2.539062500E-2,-3.178914388E-3,-9.663899740E-3
8.735938214E0,-4.386107127E-3,-3.400969505E-2,-2.091566722E-3,-3.071594238E-2,-1.170349121E-2,-1.001485189E-2
8.750830793E0,1.130104065E-4,-2.131438255E-2,5.082607269E-3,-2.574666341E-2,-9.928385417E-3,-1.107788086E-2
8.765753888E0,-1.214345296E-2,-1.781471570E-2,-3.117195765E-2,-2.645874023E-2,-7.797241211E-3,-7.883707682E-3
8.780646466E0,-1.867278417E-2,-1.920390129E-2,4.910548528E-2,-2.752685547E-2,-7.085164388E-3,-8.595784505E-3
8.795539044E0,-1.906156540E-2,-1.801602046E-2,1.522858938E-2,-2.681477865E-2,-1.205444336E-2,-5.752563477E-3
8.810431623E0,-3.750673930E-2,-1.767230034E-2,4.515139262E-2,-2.219645182E-2,-1.134745280E-2,-5.050659180E-3
8.825354718E0,-1.920620600E-2,-1.713041464E-2,7.287200292E-2,-2.361551921E-2,-1.276652018E-2,-3.982543945E-3
8.840247296E0,4.260222117E-3,-1.337432861E-2,3.291702271E-2,-1.757812500E-2,-9.923299154E-3,-1.846313477E-3
8.855139875E0,1.453256607E-2,-1.430118084E-2,5.600627263E-2,-1.260375977E-2,-7.085164388E-3,-1.134236654E-3
8.870032453E0,2.187649409E-2,-8.823434512E-3,7.536665599E-2,-9.770711263E-3,-7.441202799E-3,-7.781982422E-4
8.884925031E0,4.557752609E-2,-2.219521999E-2,6.580670675E-3,-5.859375000E-3,-3.540039062E-3,-1.846313477E-3
8.899848126E0,2.427212397E-2,-1.504969597E-2,1.689179738E-2,1.235961914E-3,-1.047770182E-3,-3.982543945E-3
8.914740705E0,-1.510779063E-3,1.121167342E-2,-1.071914037E-2,8.850097656E-4,1.083374023E-3,-3.626505534E-3
8.929633283E0,-4.312403997E-2,4.815578461E-3,2.150217692E-3,4.084269206E-3,9.246826172E-3,-2.914428711E-3
8.944525861E0,-3.440729777E-2,2.893380324E-2,-1.049407323E-2,3.016153971E-3,7.115681966E-3,-3.270467122E-3
8.959448957E0,-2.569500605E-2,1.100520293E-2,-1.479466756E-2,4.084269206E-3,6.408691406E-3,-1.846313477E-3
8.974341535E0,-1.496092478E-2,1.717778047E-2,7.411638896E-4,1.948038737E-3,3.712972005E-4,-1.846313477E-3
8.989234113E0,4.062016805E-3,1.925090949E-2,2.578433355E-2,8.850097656E-4,-1.759847005E-3,-2.202351888E-3
9.004126691E0,2.356402079E-2,8.292078972E-3,-1.572672526E-2,2.660115560E-3,-5.666097005E-3,-2.558390299E-3
9.019049787E0,-6.740887960E-3,1.783808072E-3,-9.980837504E-3,-1.958211263E-3,-1.047770182E-3,-3.626505534E-3
9.033942365E0,-3.845198949E-2,6.173173587E-3,-6.324450175E-4,-2.665201823E-3,1.078287760E-3,-4.694620768E-3
9.048834943E0,-5.739466349E-2,-3.051559130E-3,-4.223028819E-3,-3.021240234E-3,3.214518229E-3,-2.202351888E-3
9.063727521E0,-1.030762990E-2,1.216924191E-2,-1.516787211E-2,-2.665201823E-3,-4.247029622E-3,-7.781982422E-4
9.078620099E0,3.735446930E-2,-3.881990910E-2,1.562198003E-2,-1.246134440E-3,-1.099141439E-2,-2.202351888E-3
9.093543195E0,4.898230235E-2,-1.575438182E-2,1.105610530E-2,-4.445393880E-3,-1.560974121E-2,-7.120768229E-5
9.108435773E0,2.222665151E-2,-1.000821590E-2,-7.289250692E-3,-1.958211263E-3,-7.441202799E-3,2.766927083E-3
9.123328351E0,-7.158279419E-3,2.515621980E-2,-6.878376007E-3,1.729329427E-4,-7.441202799E-3,-6.612141927E-5
9.138220929E0,8.613427480E-3,1.308417320E-2,-3.500636419E-2,-3.377278646E-3,-4.608154297E-3,-2.202351888E-3
9.153113507E0,-3.266350428E-2,5.017042160E-3,-9.691556295E-3,-4.089355469E-3,-3.540039062E-3,-6.108601888E-3
9.168036603E0,9.137789408E-3,-9.018143018E-3,-4.466485977E-2,-5.503336589E-3,-6.022135417E-3,-4.338582357E-3
9.182929181E0,-2.317396800E-2,-1.872273286E-2,9.491602580E-3,-6.922403971E-3,-1.063537598E-2,-2.914428711E-3
9.197821759E0,-2.204004924E-2,-2.639404933E-2,-3.679116567E-3,-1.119486491E-2,-7.085164388E-3,-2.914428711E-3
9.212714337E0,1.365327835E-2,-5.115473270E-2,-2.065102259E-2,-7.634480794E-3,-1.560465495E-2,9.918212891E-4
9.227606916E0,-5.972226461E-3,9.916702906E-3,-5.522727966E-3,-7.634480794E-3,-9.577433268E-3,7.741292318E-3
9.242530011E0,-1.851701736E-2,2.788722515E-2,6.530268987E-2,-7.990519206E-3,-8.860270182E-3,1.200866699E-2
9.257422589E0,-3.420670827E-2,1.639087995E-2,2.282301585E-3,-1.225280762E-2,-9.928385417E-3,1.129659017E-2
9.272315168E0,2.221981684E-2,-1.395912965E-2,8.175214132E-3,-9.770711263E-3,-2.471923828E-3,7.029215495E-3
9.287207746E0,4.515218735E-2,-2.128291130E-2,3.795417150E-2,-7.278442383E-3,-1.063537598E-2,5.610148112E-3
9.302100324E0,5.161794027E-2,-8.928100268E-3,4.937966665E-3,-4.796346029E-3,-9.216308594E-3,8.448282878E-3
9.317023419E0,2.567768097E-2,-5.241076152E-3,1.988855998E-2,-1.246134440E-3,-6.017049154E-3,7.029215495E-3
9.331915998E0,3.157345454E-2,2.799868584E-3,-7.684071859E-3,-1.597086589E-3,-6.017049154E-3,4.903157552E-3
9.346808576E0,-1.821152369E-2,1.278054714E-2,9.470939636E-3,8.799235026E-4,-3.896077474E-3,5.966186523E-3
9.361701154E0,-5.423434575E-2,6.122863293E-2,-2.244122823E-2,1.729329427E-4,-1.403808594E-3,7.741292318E-3
9.376624250E0,7.653554281E-3,3.905721505E-2,8.862972260E-3,1.953125000E-3,-3.534952799E-3,3.835042318E-3
9.391516828E0,3.035561244E-2,-1.667575041E-2,-4.265610377E-2,-4.445393880E-3,-1.205952962E-2,-7.832845052E-4
9.406409406E0,1.920032501E-2,-2.356342475E-2,-2.631394068E-2,-5.152384440E-3,-7.441202799E-3,-5.045572917E-3
9.421301984E0,-3.574021657E-2,2.546044191E-2,9.922504425E-3,-3.021240234E-3,-2.471923828E-3,-2.558390299E-3
9.436225080E0,-3.194332123E-2,7.850329081E-4,4.244438807E-2,-4.089355469E-3,-5.666097005E-3,-1.490275065E-3
9.451117658E0,-3.261105220E-2,1.879096031E-3,1.963329315E-2,-4.089355469E-3,-1.241556803E-2,-4.221598307E-4
9.466010236E0,-1.901022593E-2,1.030747096E-2,4.533942540E-2,-2.309163411E-3,-9.572347005E-3,-7.832845052E-4
9.480902814E0,-2.734994888E-2,-1.812970638E-2,2.462180456E-2,-4.801432292E-3,-5.666097005E-3,3.479003906E-3
9.495795392E0,-5.870087941E-2,1.554199060E-2,-2.789815267E-2,-1.958211263E-3,1.244099935E-2,8.092244466E-3
9.510718488E0,-2.025206884E-2,-1.601878802E-2,-2.922900518E-2,-3.021240234E-3,2.858479818E-3,5.254109701E-3
9.525611066E0,2.602672577E-2,-1.613712311E-2,-1.674842834E-2,-2.314249674E-3,-8.509318034E-3,7.029215495E-3
9.540503644E0,5.170869827E-2,-1.494121552E-2,-1.451126734E-2,-2.309163411E-3,-1.454162598E-2,6.673177083E-3
9.555396222E0,4.255485535E-2,-8.214513461E-3,9.424368540E-3,-1.246134440E-3,-9.572347005E-3,8.092244466E-3
9.570288800E0,2.691682180E-2,1.178673903E-2,-9.349981944E-3,-1.953125000E-3,-6.373087565E-3,7.024129232E-3
9.585211896E0,9.956518809E-3,3.651690483E-2,-3.263092041E-2,-2.309163411E-3,-5.310058594E-3,5.966186523E-3
9.600104474E0,-1.189454397E-2,3.167355061E-2,1.091003418E-3,-5.503336589E-3,-5.315144857E-3,5.615234375E-3
9.614997052E0,-1.498063405E-3,3.390192986E-2,-1.718378067E-2,-5.503336589E-3,-4.954020182E-3,2.766927083E-3
9.629889630E0,-2.538681030E-3,2.472078800E-2,-3.101666768E-2,-6.210327148E-3,1.078287760E-3,5.966186523E-3
9.644812726E0,1.337210337E-3,1.361926397E-3,3.904740016E-2,-9.058634440E-3,-1.759847005E-3,3.835042318E-3
9.659705304E0,2.799797058E-2,2.561084429E-2,-7.131417592E-3,-1.260884603E-2,-1.170349121E-2,6.408691406E-4
9.674597882E0,1.021941503E-2,2.040227254E-3,-2.056455612E-2,-9.058634440E-3,-1.169840495E-2,-6.612141927E-5
9.689490460E0,-1.915073395E-2,2.820380529E-2,-2.104441325E-3,-1.154073079E-2,-4.247029622E-3,2.054850260E-3
9.704383039E0,-1.105133692E-2,-8.538524310E-3,1.294231415E-2,-9.414672852E-3,7.324218750E-4,3.479003906E-3
9.719306134E0,-1.381603877E-2,-2.467219035E-2,-4.412492116E-2,-1.225789388E-2,-3.184000651E-3,2.766927083E-3
9.734198712E0,1.537005107E-3,-1.859990756E-2,5.423355103E-2,-1.047770182E-2,-6.378173828E-3,4.903157552E-3
9.749091291E0,9.916941325E-3,-6.844202677E-4,-9.937286377E-4,-8.702596029E-3,-6.734212240E-3,6.317138672E-3
9.763983869E0,-2.749760946E-4,-3.127376239E-3,2.827231089E-2,-5.508422852E-3,-3.356933594E-4,8.448282878E-3
9.778876447E0,1.626014709E-4,-9.798129400E-3,1.749642690E-2,-6.215413411E-3,-4.954020182E-3,5.254109701E-3
9.793799543E0,2.718416850E-2,-6.325125694E-3,-9.302616119E-3,-2.309163411E-3,-3.896077474E-3,5.615234375E-3
9.808692121E0,5.462153753E-2,-2.240514755E-2,3.845055898E-2,1.235961914E-3,-1.403808594E-3,5.259195964E-3
9.823584699E0,5.937639872E-2,-9.844660759E-3,3.075281779E-3,1.592000326E-3,3.712972005E-4,3.835042318E-3
9.838477277E0,2.907164892E-2,4.676580429E-3,2.306667964E-2,3.372192383E-3,-1.759847005E-3,2.410888672E-3
9.853400373E0,-2.287451426E-2,8.767366409E-3,-3.381284078E-2,3.016153971E-3,4.277547201E-3,3.479003906E-3
9.868262433E0,-3.092734019E-2,3.329614798E-2,-1.949389776E-2,5.147298177E-3,8.178710938E-3,6.408691406E-4
9.883185529E0,-2.873229980E-2,2.704954147E-2,-6.133874257E-3,3.016153971E-3,-6.968180339E-4,1.342773438E-3
9.898078107E0,-2.537584305E-2,1.822483540E-2,-8.188565572E-3,-1.597086589E-3,-3.184000651E-3,-4.221598307E-4
9.912970685E0,-6.417751312E-3,-1.305182775E-3,-4.531844457E-2,-3.021240234E-3,-5.315144857E-3,-7.781982422E-4
9.927893781E0,2.734136581E-2,-1.388192177E-2,1.319726308E-2,-3.728230794E-3,-9.928385417E-3,-2.202351888E-3
9.942786359E0,8.332252502E-3,-7.236639659E-3,7.777690887E-3,-8.346557617E-3,-1.028442383E-2,-1.134236654E-3
9.957678937E0,-1.414775848E-3,-1.733255386E-2,1.761802038E-2,-6.922403971E-3,-2.115885417E-3,-1.846313477E-3
9.972571515E0,7.559776306E-3,-3.123565515E-2,6.593926748E-2,-5.859375000E-3,-5.310058594E-3,-2.558390299E-3
9.987494611E0,1.049995422E-2,6.888628006E-3,1.222372055E-2,-5.503336589E-3,-5.310058594E-3,-1.490275065E-3
1.000238719E1,3.438250224E-2,8.372028669E-3,7.287168503E-2,-1.780192057E-4,-2.827962240E-3,-2.558390299E-3
1.001727977E1,2.219994863E-2,-1.956065496E-3,3.777360916E-2,-5.391438802E-4,-2.471923828E-3,-2.202351888E-3
1.003217235E1,-2.332798640E-2,-4.059994221E-2,2.867825826E-2,2.304077148E-3,4.984537760E-3,-2.558390299E-3
1.004706492E1,-2.201652527E-2,-4.119149844E-2,2.146450679E-2,6.922403971E-3,9.246826172E-3,-1.490275065E-3
1.006198802E1,1.244386037E-3,-1.207232475E-3,8.533954620E-3,7.629394531E-3,7.822672526E-3,1.703898112E-3
1.007688060E1,-1.233816147E-2,2.522850037E-2,1.323127747E-2,9.765625000E-3,7.822672526E-3,2.766927083E-3
1.009177318E1,8.440017700E-4,3.230253855E-3,-2.238480250E-2,1.047261556E-2,1.067097982E-2,2.410888672E-3
1.010666575E1,-1.415554682E-2,-2.202073733E-3,-2.730528514E-2,8.697509766E-3,1.350911458E-2,2.766927083E-3
1.012158885E1,-9.881814321E-3,-2.198374271E-2,-2.140553792E-2,6.210327148E-3,1.102701823E-2,2.848307292E-4
1.013648143E1,3.498872121E-3,-9.838024775E-3,-1.978174845E-2,9.409586589E-3,8.178710938E-3,2.899169922E-4
1.015137401E1,1.712751389E-2,1.057446003E-2,-1.733732224E-2,8.341471354E-3,8.534749349E-3,4.542032878E-3
1.016626658E1,1.955493291E-2,8.050918579E-3,-3.880357742E-2,7.985432943E-3,7.822672526E-3,4.191080729E-3
1.018115916E1,2.271080017E-2,2.963562806E-2,-3.922541936E-2,6.566365560E-3,6.408691406E-3,9.918212891E-4
1.019608226E1,-1.330677668E-2,1.314830780E-2,-2.862485250E-2,3.728230794E-3,6.759643555E-3,-1.134236654E-3
1.021094432E1,-4.847272237E-2,6.929715474E-3,-5.394458771E-3,1.948038737E-3,7.822672526E-3,-2.202351888E-3
1.022586741E1,-1.925198237E-2,-2.694725990E-3,-2.839088440E-2,1.235961914E-3,5.345662435E-3,-2.202351888E-3
1.024075999E1,2.067391078E-2,-5.085512002E-2,2.201636632E-2,1.948038737E-3,4.984537760E-3,-1.846313477E-3
1.025568309E1,3.534046809E-2,-2.417751153E-2,5.725701650E-3,5.238850911E-4,-8.860270182E-3,-3.982543945E-3
1.027057567E1,1.423756282E-2,-1.154100895E-2,3.124396006E-2,2.660115560E-3,-5.310058594E-3,-3.626505534E-3
1.028546824E1,-7.034142812E-3,1.661845048E-2,-2.004559835E-2,3.372192383E-3,2.141316732E-3,1.347859701E-3
1.030036082E1,-5.109643936E-2,4.745372136E-2,5.682086945E-2,5.147298177E-3,4.989624023E-3,6.408691406E-4
1.031525340E1,-2.670764923E-2,-1.003209750E-2,6.742795308E-3,5.238850911E-4,6.408691406E-3,9.969075521E-4
1.033017650E1,2.300786972E-2,-3.096262614E-2,-1.049280167E-2,6.571451823E-3,1.790364583E-3,-1.490275065E-3
1.034506907E1,-1.025438309E-2,3.875104586E-2,4.953130086E-2,9.760538737E-3,-3.184000651E-3,2.059936523E-3
1.035996165E1,-2.813196182E-2,1.578466098E-2,2.243836721E-2,7.985432943E-3,4.989624023E-3,2.766927083E-3
1.037485423E1,-3.351704280E-2,-3.959218661E-3,8.885860443E-3,4.440307617E-3,7.822672526E-3,-5.396525065E-3
1.038974681E1,-4.533926646E-3,-2.772545815E-2,-4.327519735E-2,6.566365560E-3,8.178710938E-3,-6.108601888E-3
1.040466990E1,-4.552348455E-2,-2.156901360E-2,3.807592392E-2,9.409586589E-3,9.602864583E-3,-2.202351888E-3
1.041956248E1,-8.382972082E-2,-3.499654929E-2,3.299395243E-2,8.697509766E-3,4.984537760E-3,2.797444661E-4
1.043445506E1,-3.488938014E-2,-4.103748004E-2,1.423517863E-2,1.189168294E-2,1.031494141E-2,3.829956055E-3
1.044934764E1,-4.823843638E-3,-1.598699888E-2,3.489573797E-2,1.473490397E-2,9.958902995E-3,9.516398112E-3
1.046427073E1,2.625163396E-2,1.179413001E-2,7.410049438E-4,2.006022135E-2,8.178710938E-3,1.697285970E-2
1.047916331E1,4.336357117E-3,2.869129181E-2,4.458761215E-2,2.431742350E-2,1.067097982E-2,1.732889811E-2
1.049405589E1,4.146448771E-2,4.328878721E-2,7.286389669E-3,2.361043294E-2,1.351420085E-2,1.129150391E-2
1.050894847E1,6.210867564E-2,3.463192781E-2,-3.775739670E-2,2.432250977E-2,1.564025879E-2,7.736206055E-3
1.052384105E1,3.999551137E-2,1.413861911E-2,-5.007076263E-2,2.751668294E-2,1.918538411E-2,5.966186523E-3
1.053870311E1,-2.367003759E-2,-1.248164972E-2,-4.084602992E-2,2.290344238E-2,2.096557617E-2,4.903157552E-3
1.055362620E1,-4.788446426E-2,-9.943803151E-3,-8.374977112E-2,2.148437500E-2,2.415974935E-2,2.410888672E-3
1.056854930E1,-3.201770782E-2,-2.296503385E-2,-2.500995000E-2,1.935323079E-2,2.274068197E-2,2.772013346E-3
1.058344188E1,-7.659753164E-3,-1.082022985E-3,-1.091448466E-2,1.544189453E-2,8.890787760E-3,7.385253906E-3
1.059836497E1,-1.201311747E-2,7.285038630E-3,6.782531738E-3,1.366678874E-2,4.633585612E-3,1.058451335E-2
1.061325755E1,-1.217651367E-2,1.200970014E-2,-3.024689356E-2,1.118469238E-2,6.052652995E-3,9.160359701E-3
1.062815013E1,2.350139618E-2,1.812247435E-2,7.434368134E-3,9.053548177E-3,4.989624023E-3,6.322224935E-3
1.064304271E1,1.836204529E-2,6.430546443E-4,-1.640319824E-3,6.210327148E-3,3.921508789E-3,6.668090820E-3
1.065793528E1,3.453413645E-2,1.863038540E-2,1.308616002E-2,1.047261556E-2,3.921508789E-3,5.259195964E-3
1.067282786E1,2.444680532E-2,9.988466899E-3,2.410364151E-2,1.012166341E-2,2.497355143E-3,5.961100260E-3
1.068775096E1,4.080645243E-2,-1.660974820E-2,3.629255295E-2,8.341471354E-3,6.047566732E-3,4.903157552E-3
1.070264354E1,3.312985102E-2,-1.344497999E-2,3.116369247E-2,1.012166341E-2,6.759643555E-3,3.122965495E-3
1.071753612E1,3.121789296E-2,1.931111018E-3,2.722962697E-2,1.189676921E-2,6.052652995E-3,3.122965495E-3
1.073245921E1,-5.359999339E-2,3.536264102E-3,-2.992471059E-3,1.189168294E-2,1.919047038E-2,3.829956055E-3
1.074735179E1,-5.821307500E-2,-4.680951436E-4,-1.246102651E-2,1.402282715E-2,2.096557617E-2,3.479003906E-3
1.076224437E1,-3.264458974E-2,2.027829488E-2,-3.970543543E-2,1.437886556E-2,1.422119141E-2,3.479003906E-3
1.077713694E1,1.005967458E-3,-8.037328720E-3,-3.360112508E-4,1.473490397E-2,8.890787760E-3,7.380167643E-3
1.079202952E1,-5.137443542E-3,-3.560276826E-2,4.129091899E-3,1.082865397E-2,4.277547201E-3,8.092244466E-3
1.080695262E1,7.382710775E-3,-1.055359840E-2,3.676684697E-2,1.473490397E-2,5.340576172E-3,7.736206055E-3
1.082184520E1,1.157077154E-2,2.863725026E-3,1.592302322E-2,1.509094238E-2,8.890787760E-3,1.129659017E-2
1.083673778E1,-7.524013519E-3,1.008268197E-2,2.616993586E-2,1.686604818E-2,1.209004720E-2,1.200358073E-2
1.085163035E1,1.244703929E-3,-1.421264807E-2,2.310450872E-2,1.828511556E-2,1.421610514E-2,1.165262858E-2
1.086652293E1,1.728502909E-2,-1.043955485E-3,-1.885906855E-2,2.112833659E-2,1.350911458E-2,9.872436523E-3
1.088144603E1,4.126373927E-2,3.540269534E-2,3.792126973E-3,2.431742350E-2,1.741536458E-2,9.160359701E-3
1.089633860E1,2.718162537E-2,2.869598071E-2,3.743171692E-4,2.361043294E-2,1.528422038E-2,8.092244466E-3
1.091123118E1,-2.372598648E-2,1.300017039E-2,-2.317206065E-2,2.645365397E-2,1.883951823E-2,5.610148112E-3
1.092612376E1,-5.143578847E-2,2.852598826E-3,-5.021142960E-2,2.432250977E-2,2.025349935E-2,4.898071289E-3
1.094101634E1,-3.624900182E-2,1.291942596E-2,-4.910326004E-2,2.255249023E-2,2.202860514E-2,7.736206055E-3
1.095593944E1,-3.855911891E-2,1.717114449E-2,-4.740715027E-2,1.934814453E-2,2.060953776E-2,8.448282878E-3
1.097083201E1,1.750310262E-2,1.217603683E-3,-7.991488775E-2,1.792907715E-2,1.209004720E-2,9.516398112E-3
1.098572459E1,6.058502197E-2,-1.268386841E-4,-5.521345139E-2,1.402282715E-2,3.921508789E-3,9.160359701E-3
1.100061717E1,3.742567698E-2,6.834824880E-3,-8.150895437E-3,9.760538737E-3,2.146402995E-3,1.094055176E-2
1.101550975E1,6.456375122E-4,2.900918325E-3,-3.058608373E-2,1.047261556E-2,7.115681966E-3,8.448282878E-3
1.103043284E1,-1.585165660E-3,-1.356188456E-2,2.586460114E-2,6.210327148E-3,5.696614583E-3,8.092244466E-3
1.104532542E1,1.510254542E-2,9.052753448E-3,1.170142492E-2,6.210327148E-3,5.340576172E-3,8.092244466E-3
1.106021800E1,2.336470286E-2,-1.777331034E-3,-3.125524521E-2,6.566365560E-3,3.565470378E-3,7.380167643E-3
1.107511058E1,9.921232859E-3,2.285679181E-2,-1.317866643E-2,8.341471354E-3,1.790364583E-3,3.835042318E-3
1.109003367E1,1.371049881E-2,8.303165436E-3,-2.851390839E-2,5.508422852E-3,5.345662435E-3,1.347859701E-3
1.110492625E1,2.802371979E-2,-8.070309957E-3,-1.502672831E-2,7.278442383E-3,4.633585612E-3,2.848307292E-4
1.111981883E1,4.319365819E-2,-1.659488678E-2,-3.422880173E-2,5.859375000E-3,3.921508789E-3,-7.781982422E-4
1.113471141E1,7.134437561E-3,-1.199412346E-2,-2.425988515E-2,4.084269206E-3,2.502441406E-3,-7.781982422E-4
1.114963450E1,-2.315139771E-2,4.598379135E-3,-5.479844411E-2,2.304077148E-3,3.209431966E-3,-3.626505534E-3
1.116452708E1,-2.491617203E-2,1.610501607E-2,-5.682945251E-3,1.592000326E-3,3.565470378E-3,-6.459554036E-3
1.117941966E1,-3.848091761E-2,2.945756912E-2,-1.057593028E-2,-2.665201823E-3,-1.047770182E-3,-2.914428711E-3
1.119431224E1,-3.876892726E-2,1.140991847E-2,1.808500290E-2,-1.953125000E-3,-6.968180339E-4,-2.914428711E-3
1.120920482E1,-3.112586339E-2,-9.828408559E-3,3.947194417E-2,-4.089355469E-3,-7.441202799E-3,-2.558390299E-3
1.122412791E1,1.158873240E-2,-1.851097743E-2,1.880582174E-2,-4.089355469E-3,-5.671183268E-3,-1.490275065E-3
1.123902049E1,3.097073237E-2,-1.092727979E-2,3.007713954E-2,-3.377278646E-3,-5.666097005E-3,-4.221598307E-4
1.125391307E1,7.764339447E-3,-1.542520523E-2,3.445466359E-2,1.729329427E-4,2.034505208E-5,-7.781982422E-4
1.126880565E1,5.502859751E-3,9.895722071E-3,1.086362203E-2,1.235961914E-3,2.497355143E-3,-7.781982422E-4
1.128372874E1,4.085063934E-3,1.305969556E-2,4.356702169E-3,4.440307617E-3,5.345662435E-3,-6.612141927E-5
1.129862132E1,-1.821263631E-2,-1.236756643E-3,-1.071786880E-2,5.503336589E-3,4.633585612E-3,-4.221598307E-4
1.131351390E1,-7.918357849E-3,-1.574238141E-2,3.781477610E-3,9.053548177E-3,6.764729818E-3,-1.490275065E-3
1.132840648E1,-2.748171488E-4,-7.047891617E-3,-1.850509644E-2,7.985432943E-3,3.565470378E-3,-7.781982422E-4
1.134329905E1,-8.617083232E-3,-1.299111048E-2,-1.105785370E-2,5.854288737E-3,3.921508789E-3,-7.781982422E-4
1.135822215E1,8.313496908E-3,-9.168386459E-3,-2.584203084E-2,6.922403971E-3,4.277547201E-3,-6.612141927E-5
1.137311473E1,-1.587597529E-2,-7.172187169E-3,-3.713734945E-2,5.498250326E-3,3.565470378E-3,9.918212891E-4
1.138800731E1,-3.649123510E-2,-1.317310333E-2,2.844333649E-3,5.859375000E-3,5.345662435E-3,6.408691406E-4
1.140289988E1,9.817918142E-3,-5.971749624E-3,8.302529653E-3,7.273356120E-3,1.434326172E-3,6.408691406E-4
1.141779246E1,-5.219697952E-2,3.031222026E-2,1.878420512E-2,4.084269206E-3,7.273356120E-4,2.848307292E-4
1.143271556E1,-2.275387446E-2,2.403720220E-2,-2.119843165E-2,6.566365560E-3,3.916422526E-3,1.342773438E-3
1.144760814E1,8.514881134E-3,3.806726138E-2,3.212292989E-4,7.273356120E-3,7.115681966E-3,3.479003906E-3
1.146250071E1,7.777214050E-3,1.455179850E-2,1.748863856E-2,5.503336589E-3,3.209431966E-3,3.835042318E-3
1.147739329E1,1.745335261E-2,-5.074103673E-3,-1.946592331E-2,5.503336589E-3,4.989624023E-3,2.059936523E-3
1.149228587E1,3.928391139E-2,-1.270302137E-2,-1.186974843E-2,5.859375000E-3,3.565470378E-3,-7.781982422E-4
1.150720897E1,2.942991257E-2,-1.518225670E-2,-1.850811640E-2,8.850097656E-4,3.921508789E-3,-1.846313477E-3
1.152210154E1,3.487269084E-3,-1.524798075E-2,-4.702361425E-2,1.241048177E-3,8.539835612E-3,-3.270467122E-3
1.153699412E1,2.372105916E-3,1.411668460E-2,-1.203886668E-2,1.592000326E-3,6.759643555E-3,-4.338582357E-3
1.155188670E1,-5.360126495E-3,-1.228117943E-2,-3.971815109E-2,-3.021240234E-3,3.209431966E-3,-3.270467122E-3
1.156677928E1,-1.633993785E-2,-1.337226232E-2,-9.236335754E-3,-3.377278646E-3,2.853393555E-3,-3.982543945E-3
1.158170238E1,2.152077357E-2,2.137295405E-2,-1.138146718E-2,-5.508422852E-3,-3.184000651E-3,-3.270467122E-3
1.159659495E1,3.697236379E-2,2.186997732E-2,2.531083425E-2,-6.215413411E-3,-5.315144857E-3,-1.134236654E-3
1.161148753E1,4.526138306E-3,4.150144259E-2,3.902117411E-3,-7.634480794E-3,-7.797241211E-3,-4.694620768E-3
1.162641063E1,1.241525014E-2,4.037078222E-2,1.172844569E-2,-6.922403971E-3,-2.827962240E-3,-6.815592448E-3
1.164130321E1,6.052970886E-3,1.299961408E-2,1.913928986E-2,-6.566365560E-3,-1.403808594E-3,-8.239746094E-3
1.165619578E1,-2.283064524E-2,-4.343287150E-2,3.968874613E-2,-9.770711263E-3,-1.403808594E-3,-1.107788086E-2
1.167108836E1,-3.994369507E-2,-3.145909309E-2,-1.814444860E-2,-7.634480794E-3,2.034505208E-5,-1.107788086E-2
1.168598094E1,-3.089189529E-2,-2.724170685E-3,1.753155390E-2,-5.508422852E-3,7.273356120E-4,-9.302775065E-3
1.170087352E1,-3.561019897E-3,-1.771211624E-3,2.760759989E-2,-6.566365560E-3,-1.408894857E-3,-6.459554036E-3
1.171579661E1,1.875178019E-2,1.217643420E-2,3.565470378E-3,-1.602172852E-3,-2.115885417E-3,-5.757649740E-3
1.173068919E1,3.354994456E-2,1.110744476E-2,1.768700282E-2,1.235961914E-3,7.273356120E-4,-5.752563477E-3
1.174558177E1,-6.669362386E-3,4.654884338E-3,7.740656535E-3,1.729329427E-4,2.497355143E-3,-7.527669271E-3
1.176047435E1,2.291361491E-3,1.666243871E-2,-2.119970322E-2,3.016153971E-3,4.277547201E-3,-9.307861328E-3
1.177539744E1,-1.208146413E-2,-2.157529195E-3,-9.868939718E-3,1.235961914E-3,8.178710938E-3,-1.037597656E-2
1.179029002E1,-3.770478566E-2,-3.532242775E-2,-2.302424113E-2,-5.340576172E-4,5.696614583E-3,-1.107788086E-2
1.180518260E1,-1.050043106E-2,-2.536765734E-2,-5.410194397E-3,-1.597086589E-3,5.345662435E-3,-1.001485189E-2
1.182007518E1,1.436074575E-3,-2.179185549E-2,-1.589393616E-2,-2.665201823E-3,2.034505208E-5,-6.464640299E-3
1.183496776E1,2.638069789E-2,1.082662741E-2,-2.450640996E-2,-2.665201823E-3,-2.827962240E-3,-3.982543945E-3
1.184989085E1,1.528898875E-3,3.286560376E-2,-1.613314946E-2,-5.152384440E-3,-2.471923828E-3,-2.914428711E-3
1.186478343E1,-7.039070129E-3,1.443680127E-2,4.217465719E-3,-6.922403971E-3,7.273356120E-4,-5.396525065E-3
1.187967601E1,-3.732045492E-3,-2.472368876E-2,-1.591889064E-2,-5.152384440E-3,-2.827962240E-3,-6.815592448E-3
1.189456858E1,3.693739573E-3,-1.482065519E-2,-8.656660716E-3,-6.571451823E-3,-1.759847005E-3,-7.527669271E-3
1.190946116E1,-1.968542735E-3,-4.966894786E-3,3.417650859E-3,-7.634480794E-3,2.034505208E-5,-6.815592448E-3
1.192438426E1,2.711741130E-2,2.079804738E-3,-1.142915090E-2,-7.278442383E-3,-2.471923828E-3,-7.171630859E-3
1.193927684E1,1.857439677E-3,-1.880582174E-2,3.446054459E-2,-7.278442383E-3,-3.896077474E-3,-9.658813477E-3
1.195416942E1,-1.664590836E-2,-6.108125051E-3,1.877435048E-2,-7.278442383E-3,-6.017049154E-3,-1.001993815E-2
1.196906199E1,-1.735925674E-2,-2.405003707E-2,-1.769002279E-2,-5.508422852E-3,2.502441406E-3,-7.883707682E-3
1.198398509E1,2.636114756E-3,-1.309231917E-2,8.134682973E-3,-1.953125000E-3,2.146402995E-3,-5.045572917E-3
1.199887767E1,1.502943039E-2,-1.820894082E-2,3.820578257E-3,-4.445393880E-3,-3.184000651E-3,-5.050659180E-3
1.201377025E1,1.085599264E-3,1.471257210E-2,-6.451606750E-4,-1.953125000E-3,-1.047770182E-3,-5.401611328E-3
1.202866282E1,1.029539108E-2,2.604238192E-2,-3.404251734E-2,-2.665201823E-3,2.502441406E-3,-7.527669271E-3
1.204355540E1,-6.634394328E-4,2.596668402E-2,-2.514680227E-3,-8.850097656E-4,3.921508789E-3,-6.815592448E-3
1.205847850E1,-1.675033569E-2,-7.981856664E-4,-3.264745076E-3,-2.314249674E-3,1.083374023E-3,-9.302775065E-3
1.207337108E1,-5.171648661E-2,-2.379449209E-2,-2.175013224E-2,-3.733317057E-3,1.439412435E-3,-1.001993815E-2
1.208826365E1,-3.697045644E-2,-2.134847641E-2,2.788384755E-3,-4.796346029E-3,7.827758789E-3,-7.527669271E-3
1.210315623E1,-3.603045146E-2,-3.061230977E-2,-1.881440481E-2,-5.503336589E-3,1.083374023E-3,-4.694620768E-3
1.211804881E1,1.331504186E-2,-9.273529053E-3,1.210625966E-2,-2.309163411E-3,-3.534952799E-3,-3.626505534E-3
1.213297191E1,2.441930771E-2,1.441784700E-2,2.360677719E-2,-2.309163411E-3,-2.827962240E-3,1.703898112E-3
1.214786448E1,5.125999451E-4,-6.642619769E-3,2.755149206E-2,-1.602172852E-3,-1.759847005E-3,6.357828776E-4
1.216275706E1,7.167816162E-3,2.136127154E-2,3.470849991E-2,3.016153971E-3,2.141316732E-3,6.408691406E-4
1.217764964E1,8.214632670E-3,1.485812664E-2,3.148221970E-2,4.084269206E-3,6.408691406E-3,2.766927083E-3
1.219257274E1,3.733746211E-2,-4.130681356E-3,-1.260105769E-2,5.503336589E-3,4.277547201E-3,-1.134236654E-3
1.220746531E1,4.200251897E-2,-2.561887105E-3,9.834925334E-3,5.859375000E-3,3.926595052E-3,-4.689534505E-3
1.222235789E1,1.896397273E-2,-9.875774384E-3,-2.913777033E-2,2.660115560E-3,8.534749349E-3,-1.846313477E-3
1.223725047E1,-3.519741694E-2,-1.930562655E-2,-4.122479757E-2,1.235961914E-3,1.102701823E-2,-5.401611328E-3
1.225214305E1,-2.699391047E-2,1.362097263E-2,-2.305603027E-2,1.592000326E-3,1.102701823E-2,-5.040486654E-3
1.226706614E1,1.940886180E-3,8.223692576E-3,-3.151337306E-2,-3.021240234E-3,3.921508789E-3,-6.612141927E-5
1.228195872E1,3.015311559E-2,1.338899136E-2,-7.726669312E-3,-2.309163411E-3,-6.917317708E-4,-3.270467122E-3
1.229685130E1,2.784649531E-2,-5.068262418E-3,2.185662587E-3,-6.927490234E-3,-3.540039062E-3,-6.103515625E-3
1.231174388E1,1.379346848E-2,7.779200872E-4,-3.986136119E-2,-8.346557617E-3,-1.047770182E-3,-7.527669271E-3
1.232666697E1,7.918039958E-3,-1.379354795E-2,-2.641614278E-2,-8.702596029E-3,-3.540039062E-3,-1.107788086E-2
1.234155955E1,-3.050168355E-4,9.724219640E-3,-2.605104446E-2,-9.409586589E-3,-5.315144857E-3,-9.663899740E-3
1.235645213E1,-2.892382940E-2,-2.560098966E-3,6.324291229E-3,-9.409586589E-3,-5.315144857E-3,-1.001993815E-2
1.237134471E1,-4.025904338E-2,-1.055328051E-2,2.348295848E-2,-9.414672852E-3,-8.509318034E-3,-1.214599609E-2
1.238623729E1,-1.221688588E-2,2.287515004E-2,4.114087423E-2,-9.058634440E-3,-8.865356445E-3,-1.178995768E-2
1.240116038E1,-4.416624705E-3,1.955775420E-2,-1.348797480E-2,-1.083374023E-2,-1.028442383E-2,-9.307861328E-3
1.241605296E1,-2.600065867E-2,2.015272776E-2,-5.554215113E-2,-9.058634440E-3,-7.085164388E-3,-1.001993815E-2
1.243094554E1,-2.234649658E-2,3.893955549E-2,-2.132654190E-2,-1.190185547E-2,-9.933471680E-3,-8.239746094E-3
1.244583812E1,-7.802311579E-2,2.702422937E-2,3.290875753E-2,-1.403299967E-2,-1.347859701E-2,-6.459554036E-3
1.246073070E1,-6.582482656E-2,3.179709117E-4,-6.307442983E-3,-2.042134603E-2,-9.933471680E-3,-8.590698242E-3
1.247565379E1,-1.422421137E-2,-1.577862104E-2,-2.809000015E-2,-2.325948079E-2,-1.489766439E-2,-1.072692871E-2
1.249054637E1,1.127036413E-2,-4.844530423E-2,5.723730723E-2,-2.645874023E-2,-2.626037598E-2,-4.689534505E-3
1.250543895E1,1.486221949E-2,-7.223661741E-2,-2.379782995E-2,-2.681477865E-2,-2.093505859E-2,-3.982543945E-3
1.252033153E1,-1.042175293E-2,-7.964177926E-2,7.466888428E-2,-1.793416341E-2,-2.094014486E-2,-4.221598307E-4
1.253525462E1,2.252133687E-2,-4.281163216E-2,-2.559979757E-3,-2.184041341E-2,-1.524861654E-2,5.254109701E-3
1.255014720E1,2.304808299E-2,1.900378863E-2,2.984714508E-2,-1.509602865E-2,-1.099141439E-2,7.736206055E-3
1.256503978E1,6.299320857E-2,5.437584718E-2,4.070186615E-2,-1.295979818E-2,-1.454162598E-2,6.317138672E-3
1.257993236E1,5.072387060E-2,3.868540128E-2,6.117614110E-2,-1.012674967E-2,-1.276652018E-2,9.918212891E-4
1.259482493E1,3.319327037E-2,-1.445019245E-2,9.624322255E-3,-7.278442383E-3,-9.221394857E-3,-7.532755534E-3
1.260971751E1,2.589321136E-2,-1.852166653E-2,-2.713648478E-2,-4.801432292E-3,-2.466837565E-3,-1.320902507E-2
1.262464061E1,6.303151449E-3,-4.602392515E-3,-4.717270533E-2,-6.927490234E-3,3.921508789E-3,-1.178487142E-2
1.263953319E1,-4.787619909E-2,-2.739707629E-2,-3.148301442E-2,-3.021240234E-3,4.633585612E-3,-1.178995768E-2
1.265442576E1,-4.056819280E-2,2.150257428E-2,-3.610865275E-2,-5.152384440E-3,-1.764933268E-3,-8.595784505E-3
1.266934886E1,-7.114807765E-2,1.059031487E-2,-3.575245539E-2,-7.990519206E-3,-3.896077474E-3,-3.626505534E-3
1.268424144E1,-5.864000320E-2,-6.146947543E-3,-6.427605947E-3,-1.296488444E-2,-2.115885417E-3,-3.982543945E-3
1.269913402E1,-6.803019842E-2,2.084175746E-4,-2.819029490E-2,-1.615905762E-2,-6.378173828E-3,-3.626505534E-3
1.271402659E1,4.284540812E-3,1.686290900E-2,1.163164775E-3,-1.402791341E-2,-9.572347005E-3,-2.202351888E-3
1.272894969E1,5.185031891E-2,1.421336333E-2,2.726014455E-2,-1.438395182E-2,-2.129109701E-2,9.918212891E-4
1.274378123E1,3.583908081E-2,-3.570874532E-2,7.612133026E-2,-1.331583659E-2,-2.094014486E-2,6.357828776E-4
1.275870433E1,3.233687083E-2,-5.017805099E-2,6.872955958E-2,-1.118977865E-2,-1.809183757E-2,9.918212891E-4
1.277362742E1,-5.888779958E-3,2.059129874E-2,2.952003479E-2,-5.508422852E-3,-1.134745280E-2,2.410888672E-3
1.278852000E1,-1.325543722E-2,4.782966773E-2,7.423194249E-2,-1.602172852E-3,-4.603068034E-3,4.547119141E-3
1.280341258E1,-3.558778763E-2,4.504819711E-2,4.365126292E-3,-5.503336589E-3,-4.603068034E-3,1.347859701E-3
1.281833568E1,-1.854991913E-2,1.652427514E-2,-1.752853394E-3,-4.089355469E-3,-3.896077474E-3,-5.752563477E-3
1.283322825E1,4.180272420E-4,-1.864282290E-2,-3.646421432E-2,-5.859375000E-3,-4.959106445E-3,-3.982543945E-3
1.284812083E1,-9.829203288E-3,-3.835837046E-2,-3.467591604E-2,-3.733317057E-3,-1.403808594E-3,-2.202351888E-3
1.286301341E1,2.265612284E-2,-5.664491653E-2,-9.319305420E-3,-1.602172852E-3,-4.247029622E-3,-7.781982422E-4
1.287790599E1,1.546065013E-2,-5.076237520E-2,-6.996949514E-3,-4.445393880E-3,-9.567260742E-3,6.408691406E-4
1.289282908E1,1.005013784E-3,-7.993698120E-3,3.621037801E-2,-3.733317057E-3,-1.099141439E-2,5.254109701E-3
1.290772166E1,-9.071509043E-3,4.913524787E-2,1.424980164E-2,-2.665201823E-3,-6.734212240E-3,9.872436523E-3
1.292261424E1,-2.157926559E-2,3.298397859E-2,1.070181529E-2,-8.900960286E-4,-4.252115885E-3,9.516398112E-3
1.293750682E1,-2.451483409E-2,1.876103878E-2,1.867500941E-2,-1.246134440E-3,3.763834635E-4,6.673177083E-3
1.295242991E1,-1.169061661E-2,-2.448288600E-2,1.379791896E-2,-1.953125000E-3,-4.954020182E-3,2.410888672E-3
1.296732249E1,-1.267274221E-3,-3.528138002E-2,-2.239926656E-2,1.948038737E-3,-3.534952799E-3,1.347859701E-3
1.298221507E1,2.507257462E-2,-3.850460052E-3,6.675243378E-3,5.508422852E-3,1.434326172E-3,7.029215495E-3
1.299710765E1,3.136046727E-2,-1.076571147E-2,-1.662349701E-2,6.922403971E-3,-3.356933594E-4,9.872436523E-3
1.301200023E1,5.007743835E-2,-3.952980042E-4,3.825314840E-2,8.697509766E-3,3.763834635E-4,7.380167643E-3
1.302692332E1,5.938069026E-2,3.199458122E-3,-6.454467773E-3,9.404500326E-3,7.273356120E-4,6.673177083E-3
1.304181590E1,3.905296326E-3,-4.839062691E-3,-2.518177032E-2,6.917317708E-3,7.827758789E-3,5.610148112E-3
1.305670848E1,-3.475220998E-2,1.118910313E-2,-5.670420329E-2,8.341471354E-3,1.209513346E-2,2.410888672E-3
1.307160106E1,7.424354553E-4,1.073014736E-2,-2.523438136E-2,6.210327148E-3,9.602864583E-3,9.918212891E-4
1.308652415E1,5.451838175E-3,5.308389664E-4,-4.378143946E-2,2.304077148E-3,1.434326172E-3,-4.221598307E-4
1.310141673E1,2.805391947E-3,2.486944199E-3,-1.259915034E-2,8.799235026E-4,-6.917317708E-4,-3.270467122E-3
1.311630931E1,4.624366760E-3,-8.337140083E-3,1.082483927E-2,-1.246134440E-3,-4.597981771E-3,-1.490275065E-3
1.313120189E1,-1.702785492E-3,8.643070857E-4,6.219546000E-3,-1.602172852E-3,-4.959106445E-3,-1.490275065E-3
1.314609446E1,-4.803005854E-2,2.246602376E-2,-9.102662404E-3,-4.440307617E-3,-6.917317708E-4,-6.612141927E-5
1.316101756E1,-2.544705073E-2,2.624698480E-2,1.757415136E-2,-4.796346029E-3,-1.759847005E-3,-4.221598307E-4
1.317591014E1,1.400311788E-2,3.308475018E-2,5.165608724E-2,-5.508422852E-3,-6.729125977E-3,-7.120768229E-5
1.319080272E1,3.586705526E-2,3.053128719E-2,-3.959019979E-3,-4.089355469E-3,-6.729125977E-3,-7.781982422E-4
1.320569529E1,2.316967646E-2,-9.191314379E-3,8.269786835E-3,-4.801432292E-3,-5.666097005E-3,-2.558390299E-3
1.322061839E1,-2.577161789E-2,1.550356547E-3,-2.524852753E-3,-5.508422852E-3,-1.759847005E-3,-5.045572917E-3
1.323551097E1,-3.827555974E-2,-1.234372457E-2,9.005705516E-3,-6.566365560E-3,2.502441406E-3,-5.757649740E-3
1.325040355E1,-2.874040604E-2,3.533522288E-3,-2.625672023E-2,-6.927490234E-3,3.712972005E-4,-3.626505534E-3
1.326529612E1,-3.722683589E-2,4.506587982E-3,-1.150210698E-2,-5.859375000E-3,-3.184000651E-3,-7.832845052E-4
1.328018870E1,3.281450272E-2,-3.657102585E-3,1.195812225E-2,-6.220499674E-3,-6.027221680E-3,1.347859701E-3
1.329511180E1,3.536589940E-2,-3.972506523E-2,1.329549154E-2,-7.634480794E-3,-9.928385417E-3,-4.221598307E-4
1.331000438E1,7.360919317E-2,-1.137534777E-2,3.196398417E-4,-9.058634440E-3,-8.153279622E-3,-1.134236654E-3
1.332489696E1,2.685817083E-2,-2.947247028E-2,1.174497604E-2,-7.283528646E-3,-3.356933594E-4,-7.120768229E-5
1.333978953E1,-1.219034195E-2,-2.473604679E-2,3.872505824E-2,-3.733317057E-3,-1.759847005E-3,-1.846313477E-3
1.335468211E1,-1.340500514E-2,1.486273607E-2,3.813012441E-2,1.780192057E-4,-3.356933594E-4,-4.221598307E-4
1.336960521E1,1.788997650E-2,4.237898191E-2,2.584091822E-2,3.372192383E-3,1.439412435E-3,1.347859701E-3
1.338449778E1,-2.022631963E-2,3.651980559E-2,-5.627791087E-3,4.084269206E-3,4.277547201E-3,-4.221598307E-4
1.339939036E1,-1.983642578E-2,2.547836304E-2,-1.794958115E-2,4.796346029E-3,8.895874023E-3,-2.558390299E-3
1.341428294E1,-3.331661224E-3,1.943822702E-2,-5.548159281E-3,2.660115560E-3,6.408691406E-3,-2.202351888E-3
1.342917552E1,-1.325575511E-2,3.038462003E-2,-1.854578654E-3,2.309163411E-3,2.497355143E-3,-2.914428711E-3
1.344409862E1,-1.726150513E-2,2.065682411E-2,4.732131958E-3,8.799235026E-4,2.497355143E-3,-3.270467122E-3
1.345899119E1,-6.565888723E-3,-1.696606477E-2,-2.270539602E-2,1.729329427E-4,2.853393555E-3,-5.045572917E-3
1.347388377E1,1.268164317E-2,8.996168772E-3,-2.269268036E-2,1.729329427E-4,2.034505208E-5,-4.333496094E-3
1.348877635E1,-1.430145899E-2,-1.277029514E-2,1.384194692E-2,-2.309163411E-3,2.853393555E-3,-1.846313477E-3
1.350366893E1,-3.569523493E-2,-1.363567511E-2,4.122734070E-3,-2.665201823E-3,-3.356933594E-4,-2.914428711E-3
1.351859202E1,-1.583528519E-2,-1.631085078E-2,-1.941649119E-2,-1.246134440E-3,3.712972005E-4,-2.202351888E-3
1.353348460E1,-1.623948415E-2,-2.554670970E-2,-2.967468898E-2,-2.309163411E-3,3.565470378E-3,1.347859701E-3
1.354837718E1,-1.279465357E-2,-1.755630970E-2,-4.279899597E-2,-1.251220703E-3,1.790364583E-3,2.054850260E-3
1.356330028E1,4.969914754E-3,-3.227126598E-2,2.646811803E-2,1.592000326E-3,-1.047770182E-3,2.766927083E-3
1.357819285E1,3.174591064E-2,-1.312792301E-2,3.887065252E-2,2.660115560E-3,-6.378173828E-3,7.380167643E-3
1.359308543E1,-5.505561829E-3,2.437277635E-2,5.586671829E-2,1.948038737E-3,-4.252115885E-3,1.022847493E-2
1.360797801E1,-3.546587626E-2,4.625761509E-2,3.367710114E-2,3.016153971E-3,1.439412435E-3,8.448282878E-3
1.362287059E1,1.684872309E-2,6.746339798E-2,4.457060496E-2,4.435221354E-3,7.471720378E-3,6.673177083E-3
1.363779368E1,3.741661708E-2,4.871539275E-2,4.704141617E-2,7.278442383E-3,4.989624023E-3,4.898071289E-3
1.365268626E1,5.286184947E-2,-1.111416022E-2,-5.431063970E-2,7.629394531E-3,8.539835612E-3,-1.139322917E-3
1.366757884E1,3.783337275E-2,-3.857612610E-2,-2.975273132E-2,9.409586589E-3,1.599629720E-2,-7.883707682E-3
1.368247142E1,1.423041026E-3,-1.845522722E-2,-7.012859980E-2,6.917317708E-3,1.244608561E-2,-7.883707682E-3
1.369736400E1,-2.734057109E-2,-1.676412423E-2,-1.491832733E-2,7.273356120E-3,1.670837402E-2,-8.239746094E-3
1.371228709E1,-4.550933838E-3,2.748648326E-2,-3.797626495E-2,3.723144531E-3,1.244608561E-2,-6.108601888E-3
1.372717967E1,2.556482951E-3,2.020684878E-2,-6.023820241E-2,1.729329427E-4,9.246826172E-3,-6.108601888E-3
1.374207225E1,3.954807917E-2,3.483204047E-2,-5.841366450E-2,-3.377278646E-3,2.502441406E-3,-7.883707682E-3
1.375696483E1,8.349275589E-2,1.636219025E-2,-2.345800400E-2,-6.210327148E-3,-1.403808594E-3,-1.214599609E-2
1.377188792E1,3.364562988E-3,3.244328499E-2,-4.847494761E-2,-1.296488444E-2,-1.047770182E-3,-1.427714030E-2
1.378678050E1,-1.802412669E-2,-4.714608192E-3,-1.407035192E-2,-1.474507650E-2,3.712972005E-4,-1.675415039E-2
1.380167308E1,-1.223023733E-2,-3.358022372E-2,-3.035195669E-2,-1.474507650E-2,1.434326172E-3,-1.675415039E-2
1.381656566E1,-3.411149979E-2,-3.621276220E-2,8.479913076E-2,-1.332092285E-2,-9.216308594E-3,-1.782226562E-2
1.383145823E1,-5.096181234E-2,-3.123939037E-2,1.022911072E-2,-1.295979818E-2,-7.797241211E-3,-1.640319824E-2
1.384638133E1,-7.970650991E-3,-3.106633822E-2,5.176512400E-2,-5.859375000E-3,-3.356933594E-4,-1.534016927E-2
1.386127391E1,1.030238469E-2,-2.253905932E-2,-1.339960098E-2,-8.346557617E-3,-5.315144857E-3,-1.037089030E-2
1.387616649E1,9.267171224E-3,2.489384015E-2,1.977793376E-2,-4.089355469E-3,-6.917317708E-4,-1.001485189E-2
1.389105906E1,4.069932302E-2,3.848377864E-2,-2.124786377E-3,-4.089355469E-3,-2.115885417E-3,-7.527669271E-3
1.390598216E1,2.816549937E-2,-1.837074757E-2,1.236359278E-2,-3.733317057E-3,3.712972005E-4,-6.820678711E-3
1.392087474E1,-5.255683263E-2,-2.208666007E-2,-9.343942006E-3,-5.859375000E-3,2.141316732E-3,-7.883707682E-3
1.393576732E1,-5.116128922E-2,-2.482215563E-2,-3.321615855E-2,-6.571451823E-3,8.895874023E-3,-6.108601888E-3
1.395065989E1,-7.082796097E-2,-1.600464185E-3,9.356339773E-3,-7.278442383E-3,9.251912435E-3,-7.781982422E-4
1.396555247E1,-3.350194295E-2,-9.021043777E-3,-4.994344711E-2,-7.990519206E-3,3.209431966E-3,-6.612141927E-5
1.398044505E1,6.520652771E-2,-4.112195969E-2,4.726823171E-2,-6.215413411E-3,1.434326172E-3,-4.221598307E-4
1.399536815E1,7.515589396E-2,-2.172092597E-2,7.764212290E-2,-9.770711263E-3,-1.205444336E-2,1.698811849E-3
1.401026072E1,9.039862951E-2,-6.838043531E-3,5.310376485E-3,-4.796346029E-3,-2.115885417E-3,6.408691406E-4
1.402515330E1,4.834191004E-2,-1.472886403E-2,2.542829514E-2,-3.377278646E-3,8.890787760E-3,-4.221598307E-4
1.404004588E1,2.741575241E-2,-1.322793961E-2,-6.916046143E-3,-8.900960286E-4,1.102193197E-2,-3.982543945E-3
1.405496898E1,6.912676493E-2,4.407242934E-2,-1.102145513E-2,3.728230794E-3,1.742045085E-2,-3.982543945E-3
1.406986155E1,8.016633987E-2,6.849650542E-2,-3.699811300E-2,2.304077148E-3,1.599629720E-2,-5.757649740E-3
1.408475413E1,1.084969838E-1,6.228236357E-2,-1.746257146E-2,-3.021240234E-3,2.025858561E-2,-1.498413086E-2
1.409964671E1,9.110323588E-2,3.891901175E-2,-5.500475566E-3,-4.796346029E-3,1.670328776E-2,-2.635192871E-2
1.411456981E1,5.112965902E-2,-1.740904649E-2,1.553901037E-2,-9.058634440E-3,2.132161458E-2,-3.593444824E-2
1.412946238E1,-2.903397878E-2,-5.630246798E-2,1.172572772E-1,-9.058634440E-3,2.522277832E-2,-4.339599609E-2
1.414435496E1,-3.187020620E-2,-8.746532599E-2,3.691657384E-2,-6.215413411E-3,2.984619141E-2,-4.303995768E-2
1.415924754E1,-4.320605596E-2,-1.083186467E-1,9.782743454E-2,5.503336589E-3,4.084777832E-2,-4.125976562E-2
1.417414012E1,-2.806568146E-2,-8.544107278E-2,6.593640645E-2,9.765625000E-3,4.227193197E-2,-3.664652507E-2
1.418906321E1,8.047421773E-3,-5.088869731E-2,4.874277115E-2,2.432250977E-2,4.689025879E-2,-3.380330404E-2
1.420395579E1,3.688557943E-2,6.856123606E-4,6.939792633E-2,3.461710612E-2,5.150858561E-2,-3.096516927E-2
1.421884837E1,6.538391113E-3,6.465256214E-2,7.740926743E-2,4.136657715E-2,4.972839355E-2,-3.451538086E-2
1.423374095E1,-2.997080485E-2,9.646427631E-2,-1.436901093E-2,4.739888509E-2,5.363464355E-2,-4.303487142E-2
1.424863353E1,-8.392969767E-3,9.595771631E-2,-6.671476364E-2,5.521647135E-2,5.931091309E-2,-4.552205404E-2
1.426355662E1,-2.695782979E-2,-1.309446494E-2,-2.505954107E-2,5.308024089E-2,5.895487467E-2,-5.155944824E-2
1.427844920E1,-4.896831512E-2,-7.547199726E-2,-7.116238276E-2,4.953511556E-2,5.363464355E-2,-6.008402507E-2
1.429334178E1,-8.692646027E-2,-6.794067224E-2,-3.890085220E-2,5.059305827E-2,5.114746094E-2,-6.008402507E-2
1.430823436E1,-1.342941920E-1,-3.839043776E-2,-7.150761286E-2,5.094909668E-2,4.369099935E-2,-5.440266927E-2
1.432315745E1,-1.469186147E-1,-3.552190463E-2,-7.962195079E-2,4.846191406E-2,3.339640299E-2,-4.800923665E-2
1.433805003E1,-1.369155248E-1,9.438792864E-3,-5.010604858E-2,3.994750977E-2,3.516642253E-2,-3.380330404E-2
1.435294261E1,-1.309239070E-1,2.625858784E-2,-6.182161967E-2,3.674825033E-2,2.451578776E-2,-2.386474609E-2
1.436783519E1,-5.157375336E-2,9.711941083E-2,-1.047614415E-1,3.923543294E-2,4.628499349E-3,-1.818339030E-2
1.438272776E1,5.565325419E-3,1.225090424E-1,-4.269075394E-2,3.355407715E-2,-5.310058594E-3,-8.244832357E-3
1.439765086E1,1.720937093E-2,7.641724745E-2,-3.933540980E-2,2.184041341E-2,-8.509318034E-3,-4.689534505E-3
1.441254344E1,-2.269744873E-4,3.859921296E-2,-4.287878672E-2,1.366678874E-2,7.222493490E-4,-3.270467122E-3
1.442743602E1,3.366788228E-2,-2.690990766E-3,-1.296925545E-1,6.917317708E-3,3.763834635E-4,-6.459554036E-3
1.444232860E1,3.066205978E-1,-1.396432718E-1,-4.415224393E-1,-8.900960286E-4,4.984537760E-3,-3.626505534E-3
1.445722117E1,-8.155473073E-2,-2.287017504E-1,-4.287044207E-1,-2.665201823E-3,2.949015299E-2,9.969075521E-4
1.447214427E1,-7.240724564E-1,5.785107613E-3,-1.158126195E-2,2.751668294E-2,7.067871094E-2,1.342264811E-2
1.448703685E1,-5.437342326E-1,3.826461633E-1,7.637368838E-1,4.810587565E-2,-5.005391439E-2,6.136067708E-2
1.450189891E1,1.696958542E-1,2.098685106E-1,8.918590546E-1,-6.927490234E-3,-2.613271077E-1,6.419881185E-2
1.451682200E1,3.796529770E-1,-3.077679078E-1,8.284568787E-2,-7.510375977E-2,-1.881815592E-1,-6.459554036E-3
1.453174510E1,4.516242345E-1,-3.777353366E-1,-5.432658195E-1,-6.587219238E-2,5.753580729E-2,-6.114705404E-2
1.454663768E1,2.554295858E-1,1.128498713E-2,-5.832583110E-1,-3.178405762E-2,1.125793457E-1,-1.675923665E-2
1.456153026E1,-1.879158020E-1,2.066728274E-1,-2.329052289E-1,5.503336589E-3,8.381652832E-2,6.100463867E-2
1.457642283E1,-4.228652318E-1,8.047946294E-2,3.045835495E-1,1.935323079E-2,-2.377319336E-2,7.236226400E-2
1.459131541E1,-2.750288645E-1,-1.880494754E-2,4.378911654E-1,9.053548177E-3,-1.196492513E-1,2.939860026E-2
1.460623851E1,2.839851379E-2,3.182240327E-2,1.158242226E-1,2.660115560E-3,-9.941101074E-2,1.910400391E-2
1.462113108E1,1.882654826E-1,2.331285079E-1,1.202710470E-1,1.118469238E-2,-7.384236654E-2,3.117370605E-2
1.463602366E1,2.095241547E-1,3.566135565E-1,1.612758636E-2,-1.260884603E-2,-3.656005859E-2,4.111735026E-2
1.465091624E1,1.411819458E-2,2.062286933E-1,-1.415441831E-1,-1.793416341E-2,1.031494141E-2,3.757222493E-2
1.466580882E1,-8.201567332E-2,5.975921949E-3,-1.559131940E-1,-2.042134603E-2,3.375244141E-2,1.342264811E-2
1.468073192E1,-7.528463999E-2,-1.037328641E-1,-3.574101130E-2,-1.687113444E-2,4.989624023E-3,7.741292318E-3
1.469562449E1,-1.018908819E-1,-1.147383451E-1,2.109209696E-2,-1.509602865E-2,-2.235412598E-2,2.194213867E-2
1.471051707E1,-1.413656871E-1,-7.418191433E-2,-6.646060944E-2,-6.571451823E-3,-3.797912598E-2,3.330485026E-2
1.472540965E1,-8.423709869E-2,-1.655050119E-2,-5.100504557E-2,-5.152384440E-3,-3.656005859E-2,4.147338867E-2
1.474030223E1,1.004085541E-1,-2.151922385E-2,5.220731099E-3,-2.112833659E-2,-4.188537598E-2,5.354309082E-2
1.475522532E1,1.477243106E-1,-3.180507819E-2,2.068058650E-2,-2.894592285E-2,-4.436747233E-2,6.100463867E-2
1.477011790E1,8.236535390E-2,-5.227565765E-2,7.613499959E-3,-2.965291341E-2,-3.052266439E-2,5.994160970E-2
1.478501048E1,8.615175883E-3,-6.018014749E-2,-1.787614822E-2,-2.610270182E-2,-1.596069336E-2,4.964192708E-2
1.479990306E1,-4.840215047E-2,-6.293753783E-2,1.234690348E-2,-2.325948079E-2,-6.378173828E-3,4.324849447E-2
1.481482615E1,3.236945470E-2,-6.805749734E-2,3.609259923E-2,-2.255249023E-2,-2.200317383E-2,3.934733073E-2
1.482971873E1,1.555558840E-1,-5.205651124E-2,7.044776281E-2,-1.829020182E-2,-4.437255859E-2,4.360453288E-2
1.484461131E1,1.644185384E-1,-2.920035521E-2,1.468420029E-1,-1.828511556E-2,-4.969787598E-2,5.035400391E-2
1.485950389E1,5.932172139E-2,-4.973896345E-2,1.149048805E-1,-1.687113444E-2,-3.798421224E-2,4.822285970E-2
1.487439647E1,-6.886895498E-2,-4.313472907E-2,1.200156212E-1,-1.367696126E-2,-1.063537598E-2,4.218546549E-2
1.488931956E1,-1.033469836E-1,-1.824525992E-2,3.597227732E-2,-3.733317057E-3,-2.827962240E-3,3.578694661E-2
1.490421214E1,-2.485338847E-2,5.305727323E-3,7.075738907E-2,1.592000326E-3,-9.572347005E-3,3.934224447E-2
1.491910472E1,-3.009001414E-3,7.430354754E-3,3.186813990E-2,4.791259766E-3,-1.951599121E-2,4.040527344E-2
1.493399730E1,1.205460231E-2,1.035586993E-2,8.732906977E-2,1.224772135E-2,-2.377319336E-2,3.898620605E-2
1.494892039E1,7.271083196E-2,8.924126625E-3,9.427642822E-2,1.473490397E-2,-2.626546224E-2,3.756713867E-2
1.496381297E1,7.199732463E-2,4.200975100E-3,6.543238958E-2,1.792399089E-2,-2.164713542E-2,3.863525391E-2
1.497870555E1,3.677145640E-2,-6.053090096E-3,1.817242304E-2,2.077229818E-2,-1.027933757E-2,3.899129232E-2
1.499359813E1,-1.054970423E-2,1.186108589E-2,1.705217361E-2,2.396138509E-2,8.183797201E-3,3.721110026E-2
1.500849071E1,-5.652491252E-2,2.307772636E-3,-2.429167430E-3,2.716573079E-2,1.528422038E-2,3.827921549E-2
1.502341380E1,6.948471069E-3,3.538771470E-2,-1.675446828E-2,2.822367350E-2,1.067097982E-2,3.330485026E-2
1.503830638E1,5.322599411E-2,5.066303412E-2,8.798917135E-3,2.787272135E-2,2.853393555E-3,3.507995605E-2
1.505319896E1,8.166186015E-2,2.745783329E-2,-3.026898702E-2,2.574157715E-2,-5.310058594E-3,3.152974447E-2
1.506809154E1,1.128787994E-1,7.249275843E-3,-1.695887248E-2,2.538553874E-2,-3.184000651E-3,2.336120605E-2
1.508298411E1,9.859212240E-2,2.130985260E-2,-3.829129537E-2,1.934814453E-2,3.712972005E-4,2.016703288E-2
1.509790721E1,3.122250239E-2,-1.803628604E-2,-3.513781230E-2,1.828511556E-2,1.173400879E-2,1.413472493E-2
1.511279979E1,-2.835003535E-2,4.322608312E-3,-6.905666987E-2,1.366678874E-2,1.599629720E-2,7.736206055E-3
1.512769237E1,-1.236136754E-2,2.428253492E-2,-3.363704681E-2,1.011657715E-2,1.350911458E-2,7.029215495E-3
1.514258494E1,-4.410235087E-2,3.737862905E-2,-1.042858760E-2,4.440307617E-3,7.471720378E-3,7.024129232E-3
1.515747752E1,-2.020724614E-2,1.874653498E-2,-1.675446828E-3,-1.831054688E-4,2.853393555E-3,3.122965495E-3
1.517240062E1,2.255709966E-2,2.632832527E-2,3.489128749E-2,-5.152384440E-3,-3.356933594E-4,6.408691406E-4
1.518729320E1,4.389810562E-2,2.701822917E-2,2.981456121E-2,-4.445393880E-3,-1.759847005E-3,1.698811849E-3
1.520218577E1,7.700602214E-2,2.832460403E-2,7.388432821E-3,-5.157470703E-3,-1.047770182E-3,-1.846313477E-3
1.521707835E1,3.536113103E-2,3.118594488E-3,-8.069674174E-4,-4.801432292E-3,3.565470378E-3,-8.239746094E-3
1.523197093E1,2.947998047E-2,-3.110090892E-3,-1.228459676E-2,-6.927490234E-3,7.466634115E-3,-1.320902507E-2
1.524689403E1,-2.262973785E-2,6.352345149E-3,3.559589386E-3,-1.012674967E-2,1.138305664E-2,-1.463317871E-2
1.526178660E1,-6.949202220E-2,-2.058235804E-2,-3.195079168E-2,-1.296488444E-2,9.958902995E-3,-1.817830404E-2
1.527667918E1,-5.991856257E-2,-2.645520369E-2,8.042971293E-3,-1.296488444E-2,7.827758789E-3,-1.782226562E-2
1.529157176E1,-5.639155706E-2,-1.145267487E-2,-2.141714096E-2,-1.296488444E-2,3.565470378E-3,-1.640319824E-2
1.530649486E1,-1.154486338E-2,-2.457960447E-2,2.210203807E-2,-1.260884603E-2,1.785278320E-3,-1.427714030E-2
1.532138743E1,-1.598151525E-2,8.037209511E-3,-1.531140010E-2,-1.402791341E-2,1.083374023E-3,-1.072692871E-2
1.533628001E1,1.360162099E-2,3.809571266E-2,4.072777430E-2,-1.260375977E-2,3.570556641E-3,-8.951822917E-3
1.535117259E1,-5.848725637E-3,6.504813830E-3,4.247426987E-2,-1.367187500E-2,1.439412435E-3,-8.951822917E-3
1.536609569E1,8.038361867E-3,3.179430962E-3,3.571001689E-2,-9.414672852E-3,1.434326172E-3,-1.285807292E-2
1.538098826E1,1.322189967E-2,-1.564367612E-2,2.943197886E-2,-8.346557617E-3,-1.047770182E-3,-1.534525553E-2
1.539588084E1,-2.669095993E-2,9.470502536E-3,2.723471324E-2,-6.927490234E-3,1.439412435E-3,-1.676432292E-2
1.541077342E1,-8.136733373E-2,2.004977067E-2,3.616730372E-2,-5.157470703E-3,9.958902995E-3,-1.960245768E-2
1.542569652E1,-7.668940226E-2,2.321700255E-2,2.830727895E-2,-2.309163411E-3,9.246826172E-3,-1.711527507E-2
1.544058909E1,-6.229432424E-2,3.379901250E-3,3.929487864E-2,-8.850097656E-4,7.466634115E-3,-1.108296712E-2
1.545548167E1,-9.557978312E-2,-2.020335197E-2,2.438704173E-3,-1.241048177E-3,7.120768229E-3,-9.307861328E-3
1.547037425E1,-1.664481163E-1,-6.403772036E-2,-7.373380661E-2,4.440307617E-3,2.853393555E-3,-1.143391927E-2
1.548526683E1,-2.627763748E-1,-1.749696334E-1,1.579146385E-1,8.341471354E-3,-5.310058594E-3,-8.595784505E-3
1.550018992E1,-5.376474063E-1,2.010766665E-2,9.553750356E-3,1.189168294E-2,-3.833516439E-2,-5.396525065E-3
1.551508250E1,-4.525359472E-1,8.391869068E-2,1.137711207E-1,3.177897135E-2,-4.117838542E-2,1.058451335E-2
1.552997508E1,-4.018500646E-1,-1.175896327E-2,2.366423607E-1,3.284200033E-2,-9.834289551E-2,2.087910970E-2
1.554486766E1,-8.646814028E-1,-3.769214948E-2,2.664702733E-1,4.917907715E-2,-1.395365397E-1,1.703898112E-3
1.555976024E1,-1.270710627E0,4.865527153E-2,9.512774150E-2,7.580566406E-2,-1.793060303E-1,-7.888793945E-3
1.557468333E1,-1.385320346E0,1.824561755E-2,-2.688206037E-1,1.127370199E-1,-3.003896077E-1,-2.558390299E-3
1.558957591E1,-7.320404053E-1,-1.678878466E-1,-7.582290967E-1,1.358184814E-1,-4.814860026E-1,-1.747131348E-2
1.560446849E1,-4.595513344E-1,-4.351876974E-1,-4.180229505E-1,1.642252604E-1,-7.126464844E-1,-8.494059245E-2
1.561936107E1,-5.493957202E-1,-6.513487498E-1,-3.593977292E-1,1.542867025E-1,-8.333740234E-1,-1.925303141E-1
1.563425364E1,-9.591441154E-1,-4.455389182E-1,-1.315735499E0,2.391459147E-1,-8.642679850E-1,-2.734883626E-1
1.564917674E1,-1.066869736E0,-3.290539583E-1,-5.367913246E-1,3.371531169E-1,-1.012339274E0,-3.469950358E-1
1.566406932E1,-7.200875282E-1,-4.264276822E-1,-5.119721095E-2,3.087463379E-1,-1.295700073E0,-3.910217285E-1
1.567896190E1,-8.749373754E-2,-8.252487183E-1,2.433128357E-1,3.474477132E-1,-1.526509603E0,-4.176584880E-1
1.569385447E1,8.007795016E-1,-6.055527528E-1,-1.807185809E-1,4.273478190E-1,-1.669606527E0,-4.091339111E-1
1.570877757E1,1.100694815E0,-3.137972752E-1,-8.173449834E-2,4.053293864E-1,-1.553141276E0,-3.143208822E-1
1.572367015E1,4.968814850E-1,-4.023881753E-1,-2.110004425E-1,2.601013184E-1,-1.300318400E0,-3.097127279E-1
1.573856273E1,-1.531427701E-1,-5.989671548E-1,-9.524234136E-2,1.908569336E-1,-1.171778361E0,-4.155273438E-1
1.575345530E1,1.702300707E-1,-4.808501403E-1,4.561241468E-1,1.446990967E-1,-1.118865967E0,-4.574279785E-1
1.576834788E1,7.600310644E-1,-2.481394211E-1,5.431555112E-1,6.728617350E-2,-1.036488851E0,-3.477071126E-1
1.578327098E1,6.017656326E-1,-1.169796387E-1,1.956467628E-1,2.964274089E-2,-9.100748698E-1,-2.500559489E-1
1.579816356E1,3.768366178E-1,-1.107538939E-1,3.193558057E-1,1.189168294E-2,-8.174031576E-1,-2.820129395E-1
1.581305613E1,8.036309878E-1,-1.704917351E-1,4.733438492E-1,-4.208374023E-2,-7.598775228E-1,-3.153839111E-1
1.582794871E1,1.471499761E0,-5.094861984E-2,2.868288358E-1,-4.704793294E-2,-6.370137533E-1,-2.589314779E-1
1.584287181E1,1.638544718E0,3.735316197E-1,3.113094966E-2,-2.042134603E-2,-4.040730794E-1,-1.847178141E-1
1.585776439E1,1.167877833E0,7.180792888E-1,1.034633319E-1,-1.011657715E-2,-1.168060303E-1,-1.673177083E-1
1.587265696E1,7.705413500E-1,6.923039754E-1,1.249225934E-1,-5.415344238E-2,7.458496094E-2,-1.971435547E-1
1.588754954E1,6.274714470E-1,6.284953753E-1,1.453860601E-2,-1.145222982E-1,1.708119710E-1,-1.843617757E-1
1.590244212E1,6.172126134E-1,7.398207188E-1,-7.155911128E-2,-1.457672119E-1,1.956685384E-1,-1.204427083E-1
1.591736522E1,6.939043999E-1,8.994587660E-1,-1.382673581E-1,-1.567738851E-1,1.775614421E-1,-6.327819824E-2
1.593225779E1,7.032346725E-1,9.771862825E-1,-2.530097961E-1,-1.461232503E-1,1.736501058E-1,-2.777099609E-2
1.594715037E1,4.152143796E-1,1.080813448E0,-3.632607460E-1,-1.308542887E-1,1.985117594E-1,-1.072692871E-2
1.596204295E1,-8.193969727E-2,1.093491157E0,-6.306098302E-1,-1.127471924E-1,2.439626058E-1,-5.045572917E-3
1.597693553E1,-5.294106801E-1,9.702276786E-1,-7.829529444E-1,-9.250386556E-2,2.531941732E-1,-1.533508301E-2
1.599185862E1,-9.547187487E-1,8.403672775E-1,-3.676042557E-1,-6.480916341E-2,1.456044515E-1,-2.030944824E-2
1.600675120E1,-9.237771034E-1,5.064109961E-1,1.395438512E-1,-5.414835612E-2,-6.141153971E-2,-5.014038086E-2
1.602164378E1,-5.942548116E-1,-4.385483265E-2,2.717742920E-1,-4.740905762E-2,-2.954152425E-1,-9.381612142E-2
1.603653636E1,-2.394757271E-1,-3.269588550E-1,1.152043343E-1,-2.858988444E-2,-5.198364258E-1,-1.179606120E-1
1.605145946E1,-2.085399628E-1,-4.050461054E-1,4.607439041E-2,-3.888448079E-2,-6.110890706E-1,-1.051788330E-1
1.606635203E1,-2.619317373E-1,-5.811088483E-1,1.626459757E-1,-5.167134603E-2,-6.260019938E-1,-1.197306315E-1
1.608124461E1,-1.431260109E-1,-5.872147083E-1,4.040570259E-1,-5.024719238E-2,-6.711069743E-1,-1.481424967E-1
1.609613719E1,-5.623753866E-2,-3.271077474E-1,-3.617731730E-2,-1.509094238E-2,-7.023468018E-1,-1.314544678E-1
1.611106028E1,3.018317223E-1,-2.060884237E-1,5.047008197E-1,-1.012674967E-2,-6.306203206E-1,-9.487915039E-2
1.612595286E1,4.418460528E-1,-1.621824106E-1,5.543549856E-1,-6.089782715E-2,-5.578308105E-1,-9.985351562E-2
1.614084544E1,5.035303434E-1,-7.138987382E-2,1.068248749E-1,-4.705810547E-2,-4.324798584E-1,-1.282602946E-1
1.615573802E1,6.440526644E-1,-8.763388793E-2,-6.440925598E-2,-5.699666341E-2,-2.560017904E-1,-1.243489583E-1
1.617063060E1,4.421135585E-1,-1.120363871E-1,-3.047671318E-1,-1.120351156E-1,-1.150360107E-1,-9.452819824E-2
1.618555369E1,-5.210717519E-2,-7.516499360E-2,-3.322273890E-1,-1.294352214E-1,-2.981567383E-2,-6.824239095E-2
1.620044627E1,-3.777739207E-1,5.294680595E-3,-1.903878848E-1,-1.074218750E-1,-5.502319336E-2,-4.836527507E-2
1.621533885E1,-2.647283872E-1,1.140960852E-1,1.304051081E-1,-7.296752930E-2,-1.594187419E-1,-2.990214030E-2
1.623023143E1,2.130287488E-1,4.070622524E-1,-2.429307302E-1,-5.025227865E-2,-3.472595215E-1,3.479003906E-3
1.624512400E1,1.286112944E0,4.988991022E-1,2.474069595E-2,-8.702596029E-3,-4.605356852E-1,5.425516764E-2
1.626001658E1,2.047952493E0,8.590004047E-1,4.475015004E-1,-1.687113444E-2,-4.772186279E-1,1.295369466E-1
1.627493968E1,1.670836608E0,9.522693157E-1,-6.938241323E-1,-3.888448079E-2,-1.366933187E-1,1.742808024E-1
1.628983226E1,1.007956028E0,3.640732765E-1,-1.815600554E0,-7.723490397E-2,4.055277507E-1,1.000671387E-1
1.630472484E1,2.534848849E-1,2.529551586E-1,-1.757792791E0,-1.166483561E-1,6.782328288E-1,2.300516764E-2
1.631961741E1,1.394796371E-2,4.735913674E-1,-2.079504172E0,1.544189453E-2,5.546671549E-1,6.774902344E-2
1.633454051E1,4.472947121E-1,5.550091267E-1,-1.617346446E0,1.578318278E-1,2.180430094E-1,1.849263509E-1
1.634943309E1,7.864551544E-1,4.098339876E-2,-6.171989441E-2,1.180623372E-1,-4.544067383E-2,2.630462646E-1
1.636432548E1,9.131871859E-1,6.563226382E-3,7.334348361E-1,9.746805827E-2,-2.766011556E-1,3.035329183E-1
1.637921806E1,7.945793470E-1,-2.723374764E-1,8.536106745E-1,1.564127604E-1,-1.952819824E-1,3.908793132E-1
1.639414116E1,-8.723656336E-2,-1.056227724E0,-5.588833491E-1,1.912129720E-1,-1.278177897E-1,4.690043132E-1
1.640903374E1,-2.346741358E-1,-9.154142141E-1,-1.349381606E0,3.325398763E-1,-1.349182129E-1,4.626057943E-1
1.642392631E1,1.184886297E-1,5.457274119E-1,2.790907224E-1,4.241485596E-1,-2.517395020E-1,4.860432943E-1
1.643881889E1,-1.923492750E-1,1.423541069E0,1.818572680E0,2.654215495E-1,-1.867624919E-1,4.530181885E-1
1.645371147E1,-8.730295499E-1,7.366536061E-1,1.582368374E0,5.876668294E-2,5.505371094E-2,2.442321777E-1
1.646863457E1,-1.615481059E0,2.115681966E-1,9.042722384E-1,-1.102600098E-1,3.089447021E-1,-7.854715983E-2
1.648352714E1,-1.031899293E0,3.359240691E-1,2.095956802E-1,-1.471862793E-1,2.421875000E-1,-3.043823242E-1
1.649841972E1,-1.543903351E-1,1.226699352E-1,7.815138499E-1,-1.993815104E-1,2.116495768E-1,-2.617696126E-1
1.651331230E1,4.932079315E-1,9.959499041E-2,3.596544266E-2,-3.119506836E-1,2.254943848E-1,-1.477864583E-1
1.652820488E1,3.959887822E-1,-3.860978285E-1,2.274928093E-1,-2.071990967E-1,2.311808268E-1,-6.895955404E-2
1.654312797E1,1.102201144E-1,-5.136279265E-1,-1.119341850E-1,-1.695556641E-1,2.911885579E-1,-2.385965983E-2
1.655802055E1,-1.489359538E-1,-3.164446751E-1,-1.067822774E0,-7.048543294E-2,3.568827311E-1,6.242370605E-2
